"rt","stimulus","key_press","trial_type","trial_index","time_elapsed","internal_node_id","subj_ID","group","value","button_pressed","correct","response","responses","question_order"
"4886.000000000001","<p>In this study, you will be presented with and tested on pairings between objects and scenes.</p><p><b>Content Warning:</b> Please be aware that the images used in this study contain content that may be unpleasant or disturbing, including animal cruelty, bodily injury, death, disasters, drugs, illness, violence, and war. You may exit the study at any point if you wish to do so.</p><p>Press the spacebar to begin.</p>","32","html-keyboard-response","0","4890","0.0-0.0","anr94szkyb","0","","","","","",""
"1357.000000000001","<p>You will be presented with pairs of objects and scenes. Please do your best to remember the pairings.</p><p>Press the spacebar to continue.</p>","32","html-keyboard-response","1","6250","0.0-1.0","anr94szkyb","0","","","","","",""
"null","<img src=""osf_files/Objects/broom.jpg"" style=""margin:20px"" /><img src=""osf_files/Scenes/fight_prisoncell.jpg"" style=""margin:20px"" />","null","html-keyboard-response","2","12255","0.0-2.0-0.0","anr94szkyb","0","","","","","",""
"null","<img src=""osf_files/Objects/watch.jpg"" style=""margin:20px"" /><img src=""osf_files/Scenes/fight_peoplegrabbingface.jpg"" style=""margin:20px"" />","null","html-keyboard-response","3","18257","0.0-2.0-0.1","anr94szkyb","0","","","","","",""
"null","<img src=""osf_files/Objects/rockingchair.jpg"" style=""margin:20px"" /><img src=""osf_files/Scenes/disaster_fire.jpg"" style=""margin:20px"" />","null","html-keyboard-response","4","24258","0.0-2.0-0.2","anr94szkyb","0","","","","","",""
"null","<img src=""osf_files/Objects/wheelbarrow.jpg"" style=""margin:20px"" /><img src=""osf_files/Scenes/injury_limps.JPG"" style=""margin:20px"" />","null","html-keyboard-response","5","30260","0.0-2.0-0.3","anr94szkyb","0","","","","","",""
"null","<img src=""osf_files/Objects/ladder.jpg"" style=""margin:20px"" /><img src=""osf_files/Scenes/accident_railroad.jpg"" style=""margin:20px"" />","null","html-keyboard-response","6","36262","0.0-2.0-0.4","anr94szkyb","0","","","","","",""
"null","<img src=""osf_files/Objects/whitetowel.jpg"" style=""margin:20px"" /><img src=""osf_files/Scenes/sad_washcloth.jpg"" style=""margin:20px"" />","null","html-keyboard-response","7","42265","0.0-2.0-0.5","anr94szkyb","0","","","","","",""
"null","<img src=""osf_files/Objects/shoppingcart.jpg"" style=""margin:20px"" /><img src=""osf_files/Scenes/animals_deaddog.jpg"" style=""margin:20px"" />","null","html-keyboard-response","8","48268","0.0-2.0-0.6","anr94szkyb","0","","","","","",""
"null","<img src=""osf_files/Objects/gardenhose.jpg"" style=""margin:20px"" /><img src=""osf_files/Scenes/animals_cow.jpg"" style=""margin:20px"" />","null","html-keyboard-response","9","54270","0.0-2.0-0.7","anr94szkyb","0","","","","","",""
"null","<img src=""osf_files/Objects/lighter.jpg"" style=""margin:20px"" /><img src=""osf_files/Scenes/injury_brokenleg.jpg"" style=""margin:20px"" />","null","html-keyboard-response","10","60273","0.0-2.0-0.8","anr94szkyb","0","","","","","",""
"null","<img src=""osf_files/Objects/garbagebag.jpg"" style=""margin:20px"" /><img src=""osf_files/Scenes/war_skulls.jpg"" style=""margin:20px"" />","null","html-keyboard-response","11","66276","0.0-2.0-0.9","anr94szkyb","0","","","","","",""
"null","<img src=""osf_files/Objects/clock.jpg"" style=""margin:20px"" /><img src=""osf_files/Scenes/injury_thin.jpg"" style=""margin:20px"" />","null","html-keyboard-response","12","72278","0.0-2.0-0.10","anr94szkyb","0","","","","","",""
"null","<img src=""osf_files/Objects/hat.jpg"" style=""margin:20px"" /><img src=""osf_files/Scenes/death_burrial.JPG"" style=""margin:20px"" />","null","html-keyboard-response","13","78280","0.0-2.0-0.11","anr94szkyb","0","","","","","",""
"null","<img src=""osf_files/Objects/axe.jpg"" style=""margin:20px"" /><img src=""osf_files/Scenes/animals_whale.jpg"" style=""margin:20px"" />","null","html-keyboard-response","14","84283","0.0-2.0-0.12","anr94szkyb","0","","","","","",""
"null","<img src=""osf_files/Objects/sunglasses.jpg"" style=""margin:20px"" /><img src=""osf_files/Scenes/drugs_addictfloor.JPG"" style=""margin:20px"" />","null","html-keyboard-response","15","90286","0.0-2.0-0.13","anr94szkyb","0","","","","","",""
"null","<img src=""osf_files/Objects/trafficlight.jpg"" style=""margin:20px"" /><img src=""osf_files/Scenes/fight_riotsstreetcorner.jpg"" style=""margin:20px"" />","null","html-keyboard-response","16","96289","0.0-2.0-0.14","anr94szkyb","0","","","","","",""
"null","<img src=""osf_files/Objects/duct.jpg"" style=""margin:20px"" /><img src=""osf_files/Scenes/death_corpsestape.jpg"" style=""margin:20px"" />","null","html-keyboard-response","17","102291","0.0-2.0-0.15","anr94szkyb","0","","","","","",""
"null","<img src=""osf_files/Objects/necklace.jpg"" style=""margin:20px"" /><img src=""osf_files/Scenes/fight_manthreatgirl.jpg"" style=""margin:20px"" />","null","html-keyboard-response","18","108294","0.0-2.0-0.16","anr94szkyb","0","","","","","",""
"null","<img src=""osf_files/Objects/trafficsign.jpg"" style=""margin:20px"" /><img src=""osf_files/Scenes/death_hungbridge.jpg"" style=""margin:20px"" />","null","html-keyboard-response","19","114297","0.0-2.0-0.17","anr94szkyb","0","","","","","",""
"null","<img src=""osf_files/Objects/vase.jpg"" style=""margin:20px"" /><img src=""osf_files/Scenes/sad_childgrave.jpg"" style=""margin:20px"" />","null","html-keyboard-response","20","120299","0.0-2.0-0.18","anr94szkyb","0","","","","","",""
"null","<img src=""osf_files/Objects/comb.jpg"" style=""margin:20px"" /><img src=""osf_files/Scenes/disaster_dust.jpg"" style=""margin:20px"" />","null","html-keyboard-response","21","126302","0.0-2.0-0.19","anr94szkyb","0","","","","","",""
"null","<img src=""osf_files/Objects/bottle.jpg"" style=""margin:20px"" /><img src=""osf_files/Scenes/dirt_toilet.JPG"" style=""margin:20px"" />","null","html-keyboard-response","22","132304","0.0-2.0-0.20","anr94szkyb","0","","","","","",""
"null","<img src=""osf_files/Objects/vest.jpg"" style=""margin:20px"" /><img src=""osf_files/Scenes/disaster_flood.jpg"" style=""margin:20px"" />","null","html-keyboard-response","23","138307","0.0-2.0-0.21","anr94szkyb","0","","","","","",""
"null","<img src=""osf_files/Objects/bike.jpg"" style=""margin:20px"" /><img src=""osf_files/Scenes/animals_leopard.jpg"" style=""margin:20px"" />","null","html-keyboard-response","24","144309","0.0-2.0-0.22","anr94szkyb","0","","","","","",""
"null","<img src=""osf_files/Objects/hanger.jpg"" style=""margin:20px"" /><img src=""osf_files/Scenes/fight_policestorming.jpg"" style=""margin:20px"" />","null","html-keyboard-response","25","150312","0.0-2.0-0.23","anr94szkyb","0","","","","","",""
"null","<img src=""osf_files/Objects/newspaper2.jpg"" style=""margin:20px"" /><img src=""osf_files/Scenes/death_hungman.jpg"" style=""margin:20px"" />","null","html-keyboard-response","26","156315","0.0-2.0-0.24","anr94szkyb","0","","","","","",""
"null","<img src=""osf_files/Objects/redflag.jpg"" style=""margin:20px"" /><img src=""osf_files/Scenes/injury_doctors.JPG"" style=""margin:20px"" />","null","html-keyboard-response","27","162317","0.0-2.0-0.25","anr94szkyb","0","","","","","",""
"null","<img src=""osf_files/Objects/laundrybasket2.jpg"" style=""margin:20px"" /><img src=""osf_files/Scenes/fight_riot.jpg"" style=""margin:20px"" />","null","html-keyboard-response","28","168320","0.0-2.0-0.26","anr94szkyb","0","","","","","",""
"null","<img src=""osf_files/Objects/dress.jpg"" style=""margin:20px"" /><img src=""osf_files/Scenes/death_woman.jpg"" style=""margin:20px"" />","null","html-keyboard-response","29","174322","0.0-2.0-0.27","anr94szkyb","0","","","","","",""
"null","<img src=""osf_files/Objects/rug.jpg"" style=""margin:20px"" /><img src=""osf_files/Scenes/death_policecorpse.jpg"" style=""margin:20px"" />","null","html-keyboard-response","30","180325","0.0-2.0-0.28","anr94szkyb","0","","","","","",""
"null","<img src=""osf_files/Objects/juice.jpg"" style=""margin:20px"" /><img src=""osf_files/Scenes/sad_boycrying.jpg"" style=""margin:20px"" />","null","html-keyboard-response","31","186328","0.0-2.0-0.29","anr94szkyb","0","","","","","",""
"null","<img src=""osf_files/Objects/suitcase.jpg"" style=""margin:20px"" /><img src=""osf_files/Scenes/disaster_couple.jpg"" style=""margin:20px"" />","null","html-keyboard-response","32","192329","0.0-2.0-0.30","anr94szkyb","0","","","","","",""
"null","<img src=""osf_files/Objects/garbagebin.jpg"" style=""margin:20px"" /><img src=""osf_files/Scenes/fight_demolish.jpg"" style=""margin:20px"" />","null","html-keyboard-response","33","198332","0.0-2.0-0.31","anr94szkyb","0","","","","","",""
"null","<img src=""osf_files/Objects/brick.jpg"" style=""margin:20px"" /><img src=""osf_files/Scenes/war_capture.jpg"" style=""margin:20px"" />","null","html-keyboard-response","34","204335","0.0-2.0-0.32","anr94szkyb","0","","","","","",""
"null","<img src=""osf_files/Objects/mug.jpg"" style=""margin:20px"" /><img src=""osf_files/Scenes/hospital_mangrievinghospital.jpg"" style=""margin:20px"" />","null","html-keyboard-response","35","210338","0.0-2.0-0.33","anr94szkyb","0","","","","","",""
"null","<img src=""osf_files/Objects/doll.jpg"" style=""margin:20px"" /><img src=""osf_files/Scenes/death_corpsesgirls.jpg"" style=""margin:20px"" />","null","html-keyboard-response","36","216341","0.0-2.0-0.34","anr94szkyb","0","","","","","",""
"null","<img src=""osf_files/Objects/socket.jpg"" style=""margin:20px"" /><img src=""osf_files/Scenes/fight_robbery.jpg"" style=""margin:20px"" />","null","html-keyboard-response","37","222344","0.0-2.0-0.35","anr94szkyb","0","","","","","",""
"null","<img src=""osf_files/Objects/framedpicture.jpg"" style=""margin:20px"" /><img src=""osf_files/Scenes/fight_manguns.jpg"" style=""margin:20px"" />","null","html-keyboard-response","38","228346","0.0-2.0-0.36","anr94szkyb","0","","","","","",""
"null","<img src=""osf_files/Objects/camcorder.jpg"" style=""margin:20px"" /><img src=""osf_files/Scenes/hospital_camera.jpg"" style=""margin:20px"" />","null","html-keyboard-response","39","234349","0.0-2.0-0.37","anr94szkyb","0","","","","","",""
"null","<img src=""osf_files/Objects/bowl.jpg"" style=""margin:20px"" /><img src=""osf_files/Scenes/hospital_baby.jpg"" style=""margin:20px"" />","null","html-keyboard-response","40","240350","0.0-2.0-0.38","anr94szkyb","0","","","","","",""
"null","<img src=""osf_files/Objects/cigarette.jpg"" style=""margin:20px"" /><img src=""osf_files/Scenes/injury_beatenup.jpg"" style=""margin:20px"" />","null","html-keyboard-response","41","246352","0.0-2.0-0.39","anr94szkyb","0","","","","","",""
"null","<img src=""osf_files/Objects/ring.jpg"" style=""margin:20px"" /><img src=""osf_files/Scenes/injury_bandage.jpg"" style=""margin:20px"" />","null","html-keyboard-response","42","252355","0.0-2.0-0.40","anr94szkyb","0","","","","","",""
"null","<img src=""osf_files/Objects/sneakers.jpg"" style=""margin:20px"" /><img src=""osf_files/Scenes/fight_gang.JPG"" style=""margin:20px"" />","null","html-keyboard-response","43","258357","0.0-2.0-0.41","anr94szkyb","0","","","","","",""
"null","<img src=""osf_files/Objects/carton.jpg"" style=""margin:20px"" /><img src=""osf_files/Scenes/dirt_garbage.jpg"" style=""margin:20px"" />","null","html-keyboard-response","44","264360","0.0-2.0-0.42","anr94szkyb","0","","","","","",""
"null","<img src=""osf_files/Objects/boot.jpg"" style=""margin:20px"" /><img src=""osf_files/Scenes/accident_horse.jpg"" style=""margin:20px"" />","null","html-keyboard-response","45","270362","0.0-2.0-0.43","anr94szkyb","0","","","","","",""
"null","<img src=""osf_files/Objects/star2.jpg"" style=""margin:20px"" /><img src=""osf_files/Scenes/fight_manbeatingwoman2.jpg"" style=""margin:20px"" />","null","html-keyboard-response","46","276365","0.0-2.0-0.44","anr94szkyb","0","","","","","",""
"null","<img src=""osf_files/Objects/microphone.jpg"" style=""margin:20px"" /><img src=""osf_files/Scenes/accident_sportscar.jpg"" style=""margin:20px"" />","null","html-keyboard-response","47","282368","0.0-2.0-0.45","anr94szkyb","0","","","","","",""
"null","<img src=""osf_files/Objects/tie.jpg"" style=""margin:20px"" /><img src=""osf_files/Scenes/disaster_peoplefleeing.jpg"" style=""margin:20px"" />","null","html-keyboard-response","48","288370","0.0-2.0-0.46","anr94szkyb","0","","","","","",""
"null","<img src=""osf_files/Objects/socks.jpg"" style=""margin:20px"" /><img src=""osf_files/Scenes/injury_babyfire.jpg"" style=""margin:20px"" />","null","html-keyboard-response","49","294373","0.0-2.0-0.47","anr94szkyb","0","","","","","",""
"null","<img src=""osf_files/Objects/basket.jpg"" style=""margin:20px"" /><img src=""osf_files/Scenes/death_ditch.jpg"" style=""margin:20px"" />","null","html-keyboard-response","50","300375","0.0-2.0-0.48","anr94szkyb","0","","","","","",""
"null","<img src=""osf_files/Objects/leaves.jpg"" style=""margin:20px"" /><img src=""osf_files/Scenes/animals_starveddog.jpg"" style=""margin:20px"" />","null","html-keyboard-response","51","306378","0.0-2.0-0.49","anr94szkyb","0","","","","","",""
"null","<img src=""osf_files/Objects/skateboard.jpg"" style=""margin:20px"" /><img src=""osf_files/Scenes/fight_kidsfight.jpg"" style=""margin:20px"" />","null","html-keyboard-response","52","312380","0.0-2.0-0.50","anr94szkyb","0","","","","","",""
"null","<img src=""osf_files/Objects/tv.jpg"" style=""margin:20px"" /><img src=""osf_files/Scenes/sad_mantv.JPG"" style=""margin:20px"" />","null","html-keyboard-response","53","318382","0.0-2.0-0.51","anr94szkyb","0","","","","","",""
"null","<img src=""osf_files/Objects/bench.jpg"" style=""margin:20px"" /><img src=""osf_files/Scenes/accident_planecrash2.jpg"" style=""margin:20px"" />","null","html-keyboard-response","54","324384","0.0-2.0-0.52","anr94szkyb","0","","","","","",""
"null","<img src=""osf_files/Objects/lock.jpg"" style=""margin:20px"" /><img src=""osf_files/Scenes/fight_prisonhostage.jpg"" style=""margin:20px"" />","null","html-keyboard-response","55","330386","0.0-2.0-0.53","anr94szkyb","0","","","","","",""
"null","<img src=""osf_files/Objects/puzzle.jpg"" style=""margin:20px"" /><img src=""osf_files/Scenes/injury_selfinjury.jpg"" style=""margin:20px"" />","null","html-keyboard-response","56","336389","0.0-2.0-0.54","anr94szkyb","0","","","","","",""
"null","<img src=""osf_files/Objects/scarf.jpg"" style=""margin:20px"" /><img src=""osf_files/Scenes/sad_womengrieving.JPG"" style=""margin:20px"" />","null","html-keyboard-response","57","342391","0.0-2.0-0.55","anr94szkyb","0","","","","","",""
"null","<img src=""osf_files/Objects/woolenhat.jpg"" style=""margin:20px"" /><img src=""osf_files/Scenes/animals_dogfight.jpg"" style=""margin:20px"" />","null","html-keyboard-response","58","348393","0.0-2.0-0.56","anr94szkyb","0","","","","","",""
"null","<img src=""osf_files/Objects/handbag.jpg"" style=""margin:20px"" /><img src=""osf_files/Scenes/drugs_alcoholics.JPG"" style=""margin:20px"" />","null","html-keyboard-response","59","354395","0.0-2.0-0.57","anr94szkyb","0","","","","","",""
"null","<img src=""osf_files/Objects/belt.jpg"" style=""margin:20px"" /><img src=""osf_files/Scenes/drugs_overdosepills.jpg"" style=""margin:20px"" />","null","html-keyboard-response","60","360398","0.0-2.0-0.58","anr94szkyb","0","","","","","",""
"null","<img src=""osf_files/Objects/cellphone.jpg"" style=""margin:20px"" /><img src=""osf_files/Scenes/death_takingpic.jpg"" style=""margin:20px"" />","null","html-keyboard-response","61","366400","0.0-2.0-0.59","anr94szkyb","0","","","","","",""
"4220.000000000058","<p>You will be tested on how well you remember the pairings that you just saw. Please answer the questions to the best of your ability.</p><p>Press the spacebar to continue.</p>","32","html-keyboard-response","62","370621","0.0-3.0","anr94szkyb","0","","","","","",""
"","","","call-function","63","370622","0.0-4.0-0.0-0.0","anr94szkyb","0","0","","","","",""
"4178","osf_files/Objects/puzzle.jpg","","image-button-response","64","374804","0.0-4.0-0.0-1.0","anr94szkyb","0","","0","true","","",""
"null","osf_files/Scenes/injury_selfinjury.jpg","null","image-keyboard-response","65","377307","0.0-4.0-0.0-2.0","anr94szkyb","0","","","","","",""
"","","","call-function","66","377307","0.0-4.0-0.0-0.1","anr94szkyb","0","2","","","","",""
"2352","osf_files/Objects/framedpicture.jpg","","image-button-response","67","379661","0.0-4.0-0.0-1.1","anr94szkyb","0","","2","true","","",""
"null","osf_files/Scenes/fight_manguns.jpg","null","image-keyboard-response","68","382163","0.0-4.0-0.0-2.1","anr94szkyb","0","","","","","",""
"","","","call-function","69","382164","0.0-4.0-0.0-0.2","anr94szkyb","0","0","","","","",""
"1965","osf_files/Objects/duct.jpg","","image-button-response","70","384131","0.0-4.0-0.0-1.2","anr94szkyb","0","","0","true","","",""
"null","osf_files/Scenes/death_corpsestape.jpg","null","image-keyboard-response","71","386632","0.0-4.0-0.0-2.2","anr94szkyb","0","","","","","",""
"","","","call-function","72","386633","0.0-4.0-0.0-0.3","anr94szkyb","0","0","","","","",""
"4844","osf_files/Objects/microphone.jpg","","image-button-response","73","391478","0.0-4.0-0.0-1.3","anr94szkyb","0","","0","true","","",""
"null","osf_files/Scenes/accident_sportscar.jpg","null","image-keyboard-response","74","393980","0.0-4.0-0.0-2.3","anr94szkyb","0","","","","","",""
"","","","call-function","75","393980","0.0-4.0-0.0-0.4","anr94szkyb","0","2","","","","",""
"3201","osf_files/Objects/skateboard.jpg","","image-button-response","76","397183","0.0-4.0-0.0-1.4","anr94szkyb","0","","2","true","","",""
"null","osf_files/Scenes/fight_kidsfight.jpg","null","image-keyboard-response","77","399685","0.0-4.0-0.0-2.4","anr94szkyb","0","","","","","",""
"","","","call-function","78","399686","0.0-4.0-0.0-0.5","anr94szkyb","0","1","","","","",""
"4780.000000000058","osf_files/Objects/socks.jpg","","image-button-response","79","404467","0.0-4.0-0.0-1.5","anr94szkyb","0","","1","true","","",""
"null","osf_files/Scenes/injury_babyfire.jpg","null","image-keyboard-response","80","406970","0.0-4.0-0.0-2.5","anr94szkyb","0","","","","","",""
"","","","call-function","81","406970","0.0-4.0-0.0-0.6","anr94szkyb","0","2","","","","",""
"3788.999999999942","osf_files/Objects/laundrybasket2.jpg","","image-button-response","82","410762","0.0-4.0-0.0-1.6","anr94szkyb","0","","2","true","","",""
"null","osf_files/Scenes/fight_riot.jpg","null","image-keyboard-response","83","413264","0.0-4.0-0.0-2.6","anr94szkyb","0","","","","","",""
"","","","call-function","84","413265","0.0-4.0-0.0-0.7","anr94szkyb","0","0","","","","",""
"5191","osf_files/Objects/garbagebag.jpg","","image-button-response","85","418458","0.0-4.0-0.0-1.7","anr94szkyb","0","","0","true","","",""
"null","osf_files/Scenes/war_skulls.jpg","null","image-keyboard-response","86","420960","0.0-4.0-0.0-2.7","anr94szkyb","0","","","","","",""
"","","","call-function","87","420961","0.0-4.0-0.0-0.8","anr94szkyb","0","1","","","","",""
"3424","osf_files/Objects/axe.jpg","","image-button-response","88","424387","0.0-4.0-0.0-1.8","anr94szkyb","0","","1","true","","",""
"null","osf_files/Scenes/animals_whale.jpg","null","image-keyboard-response","89","426889","0.0-4.0-0.0-2.8","anr94szkyb","0","","","","","",""
"","","","call-function","90","426890","0.0-4.0-0.0-0.9","anr94szkyb","0","1","","","","",""
"3672","osf_files/Objects/star2.jpg","","image-button-response","91","430564","0.0-4.0-0.0-1.9","anr94szkyb","0","","1","true","","",""
"null","osf_files/Scenes/fight_manbeatingwoman2.jpg","null","image-keyboard-response","92","433066","0.0-4.0-0.0-2.9","anr94szkyb","0","","","","","",""
"","","","call-function","93","433067","0.0-4.0-0.0-0.10","anr94szkyb","0","1","","","","",""
"2304.000000000058","osf_files/Objects/sneakers.jpg","","image-button-response","94","435371","0.0-4.0-0.0-1.10","anr94szkyb","0","","1","true","","",""
"null","osf_files/Scenes/fight_gang.JPG","null","image-keyboard-response","95","437872","0.0-4.0-0.0-2.10","anr94szkyb","0","","","","","",""
"","","","call-function","96","437872","0.0-4.0-0.0-0.11","anr94szkyb","0","2","","","","",""
"3730","osf_files/Objects/bike.jpg","","image-button-response","97","441604","0.0-4.0-0.0-1.11","anr94szkyb","0","","2","true","","",""
"null","osf_files/Scenes/animals_leopard.jpg","null","image-keyboard-response","98","444106","0.0-4.0-0.0-2.11","anr94szkyb","0","","","","","",""
"","","","call-function","99","444107","0.0-4.0-0.0-0.12","anr94szkyb","0","0","","","","",""
"3918","osf_files/Objects/broom.jpg","","image-button-response","100","448027","0.0-4.0-0.0-1.12","anr94szkyb","0","","0","true","","",""
"null","osf_files/Scenes/fight_prisoncell.jpg","null","image-keyboard-response","101","450529","0.0-4.0-0.0-2.12","anr94szkyb","0","","","","","",""
"","","","call-function","102","450530","0.0-4.0-0.0-0.13","anr94szkyb","0","0","","","","",""
"3791","osf_files/Objects/boot.jpg","","image-button-response","103","454322","0.0-4.0-0.0-1.13","anr94szkyb","0","","0","true","","",""
"null","osf_files/Scenes/accident_horse.jpg","null","image-keyboard-response","104","456825","0.0-4.0-0.0-2.13","anr94szkyb","0","","","","","",""
"","","","call-function","105","456825","0.0-4.0-0.0-0.14","anr94szkyb","0","0","","","","",""
"1493.0000000000582","osf_files/Objects/belt.jpg","","image-button-response","106","458319","0.0-4.0-0.0-1.14","anr94szkyb","0","","0","true","","",""
"null","osf_files/Scenes/drugs_overdosepills.jpg","null","image-keyboard-response","107","460820","0.0-4.0-0.0-2.14","anr94szkyb","0","","","","","",""
"","","","call-function","108","460821","0.0-4.0-0.0-0.15","anr94szkyb","0","0","","","","",""
"1975","osf_files/Objects/hanger.jpg","","image-button-response","109","462797","0.0-4.0-0.0-1.15","anr94szkyb","0","","0","true","","",""
"null","osf_files/Scenes/fight_policestorming.jpg","null","image-keyboard-response","110","465299","0.0-4.0-0.0-2.15","anr94szkyb","0","","","","","",""
"","","","call-function","111","465299","0.0-4.0-0.0-0.16","anr94szkyb","0","0","","","","",""
"4614.999999999942","osf_files/Objects/brick.jpg","","image-button-response","112","469915","0.0-4.0-0.0-1.16","anr94szkyb","0","","0","true","","",""
"null","osf_files/Scenes/war_capture.jpg","null","image-keyboard-response","113","472417","0.0-4.0-0.0-2.16","anr94szkyb","0","","","","","",""
"","","","call-function","114","472417","0.0-4.0-0.0-0.17","anr94szkyb","0","2","","","","",""
"2603","osf_files/Objects/ring.jpg","","image-button-response","115","475022","0.0-4.0-0.0-1.17","anr94szkyb","0","","2","true","","",""
"null","osf_files/Scenes/injury_bandage.jpg","null","image-keyboard-response","116","477524","0.0-4.0-0.0-2.17","anr94szkyb","0","","","","","",""
"","","","call-function","117","477525","0.0-4.0-0.0-0.18","anr94szkyb","0","2","","","","",""
"4632.999999999942","osf_files/Objects/cellphone.jpg","","image-button-response","118","482159","0.0-4.0-0.0-1.18","anr94szkyb","0","","2","true","","",""
"null","osf_files/Scenes/death_takingpic.jpg","null","image-keyboard-response","119","484661","0.0-4.0-0.0-2.18","anr94szkyb","0","","","","","",""
"","","","call-function","120","484662","0.0-4.0-0.0-0.19","anr94szkyb","0","0","","","","",""
"6153.999999999942","osf_files/Objects/rockingchair.jpg","","image-button-response","121","490817","0.0-4.0-0.0-1.19","anr94szkyb","0","","0","true","","",""
"null","osf_files/Scenes/disaster_fire.jpg","null","image-keyboard-response","122","493320","0.0-4.0-0.0-2.19","anr94szkyb","0","","","","","",""
"","","","call-function","123","493320","0.0-4.0-0.0-0.20","anr94szkyb","0","0","","","","",""
"1616.0000000000582","osf_files/Objects/lighter.jpg","","image-button-response","124","494938","0.0-4.0-0.0-1.20","anr94szkyb","0","","0","true","","",""
"null","osf_files/Scenes/injury_brokenleg.jpg","null","image-keyboard-response","125","497440","0.0-4.0-0.0-2.20","anr94szkyb","0","","","","","",""
"","","","call-function","126","497441","0.0-4.0-0.0-0.21","anr94szkyb","0","1","","","","",""
"1798","osf_files/Objects/woolenhat.jpg","","image-button-response","127","499240","0.0-4.0-0.0-1.21","anr94szkyb","0","","1","true","","",""
"null","osf_files/Scenes/animals_dogfight.jpg","null","image-keyboard-response","128","501742","0.0-4.0-0.0-2.21","anr94szkyb","0","","","","","",""
"","","","call-function","129","501743","0.0-4.0-0.0-0.22","anr94szkyb","0","2","","","","",""
"2190","osf_files/Objects/tv.jpg","","image-button-response","130","503934","0.0-4.0-0.0-1.22","anr94szkyb","0","","2","true","","",""
"null","osf_files/Scenes/sad_mantv.JPG","null","image-keyboard-response","131","506435","0.0-4.0-0.0-2.22","anr94szkyb","0","","","","","",""
"","","","call-function","132","506436","0.0-4.0-0.0-0.23","anr94szkyb","0","2","","","","",""
"4055","osf_files/Objects/garbagebin.jpg","","image-button-response","133","510492","0.0-4.0-0.0-1.23","anr94szkyb","0","","2","true","","",""
"null","osf_files/Scenes/fight_demolish.jpg","null","image-keyboard-response","134","512994","0.0-4.0-0.0-2.23","anr94szkyb","0","","","","","",""
"","","","call-function","135","512994","0.0-4.0-0.0-0.24","anr94szkyb","0","1","","","","",""
"1342","osf_files/Objects/bowl.jpg","","image-button-response","136","514338","0.0-4.0-0.0-1.24","anr94szkyb","0","","1","true","","",""
"null","osf_files/Scenes/hospital_baby.jpg","null","image-keyboard-response","137","516840","0.0-4.0-0.0-2.24","anr94szkyb","0","","","","","",""
"","","","call-function","138","516841","0.0-4.0-0.0-0.25","anr94szkyb","0","2","","","","",""
"3992.999999999942","osf_files/Objects/trafficsign.jpg","","image-button-response","139","520835","0.0-4.0-0.0-1.25","anr94szkyb","0","","2","true","","",""
"null","osf_files/Scenes/death_hungbridge.jpg","null","image-keyboard-response","140","523337","0.0-4.0-0.0-2.25","anr94szkyb","0","","","","","",""
"","","","call-function","141","523337","0.0-4.0-0.0-0.26","anr94szkyb","0","0","","","","",""
"3172","osf_files/Objects/vase.jpg","","image-button-response","142","526510","0.0-4.0-0.0-1.26","anr94szkyb","0","","0","true","","",""
"null","osf_files/Scenes/sad_childgrave.jpg","null","image-keyboard-response","143","529013","0.0-4.0-0.0-2.26","anr94szkyb","0","","","","","",""
"","","","call-function","144","529013","0.0-4.0-0.0-0.27","anr94szkyb","0","1","","","","",""
"1335.0000000001164","osf_files/Objects/dress.jpg","","image-button-response","145","530349","0.0-4.0-0.0-1.27","anr94szkyb","0","","1","true","","",""
"null","osf_files/Scenes/death_woman.jpg","null","image-keyboard-response","146","532851","0.0-4.0-0.0-2.27","anr94szkyb","0","","","","","",""
"","","","call-function","147","532851","0.0-4.0-0.0-0.28","anr94szkyb","0","2","","","","",""
"3082","osf_files/Objects/redflag.jpg","","image-button-response","148","535934","0.0-4.0-0.0-1.28","anr94szkyb","0","","2","true","","",""
"null","osf_files/Scenes/injury_doctors.JPG","null","image-keyboard-response","149","538437","0.0-4.0-0.0-2.28","anr94szkyb","0","","","","","",""
"","","","call-function","150","538437","0.0-4.0-0.0-0.29","anr94szkyb","0","1","","","","",""
"1990","osf_files/Objects/juice.jpg","","image-button-response","151","540428","0.0-4.0-0.0-1.29","anr94szkyb","0","","1","true","","",""
"null","osf_files/Scenes/sad_boycrying.jpg","null","image-keyboard-response","152","542931","0.0-4.0-0.0-2.29","anr94szkyb","0","","","","","",""
"","","","call-function","153","542931","0.0-4.0-0.0-0.30","anr94szkyb","0","2","","","","",""
"3068.9999999998836","osf_files/Objects/rug.jpg","","image-button-response","154","546001","0.0-4.0-0.0-1.30","anr94szkyb","0","","2","true","","",""
"null","osf_files/Scenes/death_policecorpse.jpg","null","image-keyboard-response","155","548504","0.0-4.0-0.0-2.30","anr94szkyb","0","","","","","",""
"","","","call-function","156","548505","0.0-4.0-0.0-0.31","anr94szkyb","0","0","","","","",""
"2811","osf_files/Objects/hat.jpg","","image-button-response","157","551317","0.0-4.0-0.0-1.31","anr94szkyb","0","","0","true","","",""
"null","osf_files/Scenes/death_burrial.JPG","null","image-keyboard-response","158","553819","0.0-4.0-0.0-2.31","anr94szkyb","0","","","","","",""
"","","","call-function","159","553820","0.0-4.0-0.0-0.32","anr94szkyb","0","0","","","","",""
"1661","osf_files/Objects/camcorder.jpg","","image-button-response","160","555482","0.0-4.0-0.0-1.32","anr94szkyb","0","","0","true","","",""
"null","osf_files/Scenes/hospital_camera.jpg","null","image-keyboard-response","161","557984","0.0-4.0-0.0-2.32","anr94szkyb","0","","","","","",""
"","","","call-function","162","557985","0.0-4.0-0.0-0.33","anr94szkyb","0","1","","","","",""
"1682","osf_files/Objects/socket.jpg","","image-button-response","163","559668","0.0-4.0-0.0-1.33","anr94szkyb","0","","1","true","","",""
"null","osf_files/Scenes/fight_robbery.jpg","null","image-keyboard-response","164","562170","0.0-4.0-0.0-2.33","anr94szkyb","0","","","","","",""
"","","","call-function","165","562171","0.0-4.0-0.0-0.34","anr94szkyb","0","1","","","","",""
"5483.999999999884","osf_files/Objects/vest.jpg","","image-button-response","166","567656","0.0-4.0-0.0-1.34","anr94szkyb","0","","2","false","","",""
"null","osf_files/Scenes/disaster_flood.jpg","null","image-keyboard-response","167","570159","0.0-4.0-0.0-2.34","anr94szkyb","0","","","","","",""
"","","","call-function","168","570159","0.0-4.0-0.0-0.35","anr94szkyb","0","1","","","","",""
"2263","osf_files/Objects/wheelbarrow.jpg","","image-button-response","169","572423","0.0-4.0-0.0-1.35","anr94szkyb","0","","1","true","","",""
"null","osf_files/Scenes/injury_limps.JPG","null","image-keyboard-response","170","574925","0.0-4.0-0.0-2.35","anr94szkyb","0","","","","","",""
"","","","call-function","171","574926","0.0-4.0-0.0-0.36","anr94szkyb","0","0","","","","",""
"1454.9999999998836","osf_files/Objects/doll.jpg","","image-button-response","172","576382","0.0-4.0-0.0-1.36","anr94szkyb","0","","0","true","","",""
"null","osf_files/Scenes/death_corpsesgirls.jpg","null","image-keyboard-response","173","578884","0.0-4.0-0.0-2.36","anr94szkyb","0","","","","","",""
"","","","call-function","174","578885","0.0-4.0-0.0-0.37","anr94szkyb","0","0","","","","",""
"4996","osf_files/Objects/scarf.jpg","","image-button-response","175","583882","0.0-4.0-0.0-1.37","anr94szkyb","0","","0","true","","",""
"null","osf_files/Scenes/sad_womengrieving.JPG","null","image-keyboard-response","176","586384","0.0-4.0-0.0-2.37","anr94szkyb","0","","","","","",""
"","","","call-function","177","586385","0.0-4.0-0.0-0.38","anr94szkyb","0","2","","","","",""
"2547","osf_files/Objects/lock.jpg","","image-button-response","178","588933","0.0-4.0-0.0-1.38","anr94szkyb","0","","2","true","","",""
"null","osf_files/Scenes/fight_prisonhostage.jpg","null","image-keyboard-response","179","591435","0.0-4.0-0.0-2.38","anr94szkyb","0","","","","","",""
"","","","call-function","180","591436","0.0-4.0-0.0-0.39","anr94szkyb","0","0","","","","",""
"3421","osf_files/Objects/bench.jpg","","image-button-response","181","594858","0.0-4.0-0.0-1.39","anr94szkyb","0","","0","true","","",""
"null","osf_files/Scenes/accident_planecrash2.jpg","null","image-keyboard-response","182","597361","0.0-4.0-0.0-2.39","anr94szkyb","0","","","","","",""
"","","","call-function","183","597361","0.0-4.0-0.0-0.40","anr94szkyb","0","2","","","","",""
"5759","osf_files/Objects/ladder.jpg","","image-button-response","184","603121","0.0-4.0-0.0-1.40","anr94szkyb","0","","2","true","","",""
"null","osf_files/Scenes/accident_railroad.jpg","null","image-keyboard-response","185","605623","0.0-4.0-0.0-2.40","anr94szkyb","0","","","","","",""
"","","","call-function","186","605623","0.0-4.0-0.0-0.41","anr94szkyb","0","1","","","","",""
"3088.9999999998836","osf_files/Objects/bottle.jpg","","image-button-response","187","608714","0.0-4.0-0.0-1.41","anr94szkyb","0","","1","true","","",""
"null","osf_files/Scenes/dirt_toilet.JPG","null","image-keyboard-response","188","611216","0.0-4.0-0.0-2.41","anr94szkyb","0","","","","","",""
"","","","call-function","189","611217","0.0-4.0-0.0-0.42","anr94szkyb","0","0","","","","",""
"1667","osf_files/Objects/cigarette.jpg","","image-button-response","190","612885","0.0-4.0-0.0-1.42","anr94szkyb","0","","0","true","","",""
"null","osf_files/Scenes/injury_beatenup.jpg","null","image-keyboard-response","191","615387","0.0-4.0-0.0-2.42","anr94szkyb","0","","","","","",""
"","","","call-function","192","615387","0.0-4.0-0.0-0.43","anr94szkyb","0","0","","","","",""
"3078","osf_files/Objects/mug.jpg","","image-button-response","193","618467","0.0-4.0-0.0-1.43","anr94szkyb","0","","0","true","","",""
"null","osf_files/Scenes/hospital_mangrievinghospital.jpg","null","image-keyboard-response","194","620969","0.0-4.0-0.0-2.43","anr94szkyb","0","","","","","",""
"","","","call-function","195","620969","0.0-4.0-0.0-0.44","anr94szkyb","0","1","","","","",""
"3004","osf_files/Objects/newspaper2.jpg","","image-button-response","196","623974","0.0-4.0-0.0-1.44","anr94szkyb","0","","0","false","","",""
"null","osf_files/Scenes/death_hungman.jpg","null","image-keyboard-response","197","626475","0.0-4.0-0.0-2.44","anr94szkyb","0","","","","","",""
"","","","call-function","198","626476","0.0-4.0-0.0-0.45","anr94szkyb","0","0","","","","",""
"1513","osf_files/Objects/basket.jpg","","image-button-response","199","627990","0.0-4.0-0.0-1.45","anr94szkyb","0","","0","true","","",""
"null","osf_files/Scenes/death_ditch.jpg","null","image-keyboard-response","200","630492","0.0-4.0-0.0-2.45","anr94szkyb","0","","","","","",""
"","","","call-function","201","630493","0.0-4.0-0.0-0.46","anr94szkyb","0","1","","","","",""
"1517","osf_files/Objects/gardenhose.jpg","","image-button-response","202","632011","0.0-4.0-0.0-1.46","anr94szkyb","0","","1","true","","",""
"null","osf_files/Scenes/animals_cow.jpg","null","image-keyboard-response","203","634512","0.0-4.0-0.0-2.46","anr94szkyb","0","","","","","",""
"","","","call-function","204","634513","0.0-4.0-0.0-0.47","anr94szkyb","0","1","","","","",""
"2866.0000000001164","osf_files/Objects/comb.jpg","","image-button-response","205","637380","0.0-4.0-0.0-1.47","anr94szkyb","0","","1","true","","",""
"null","osf_files/Scenes/disaster_dust.jpg","null","image-keyboard-response","206","639882","0.0-4.0-0.0-2.47","anr94szkyb","0","","","","","",""
"","","","call-function","207","639882","0.0-4.0-0.0-0.48","anr94szkyb","0","1","","","","",""
"2104","osf_files/Objects/shoppingcart.jpg","","image-button-response","208","641987","0.0-4.0-0.0-1.48","anr94szkyb","0","","1","true","","",""
"null","osf_files/Scenes/animals_deaddog.jpg","null","image-keyboard-response","209","644489","0.0-4.0-0.0-2.48","anr94szkyb","0","","","","","",""
"","","","call-function","210","644490","0.0-4.0-0.0-0.49","anr94szkyb","0","1","","","","",""
"2001","osf_files/Objects/whitetowel.jpg","","image-button-response","211","646492","0.0-4.0-0.0-1.49","anr94szkyb","0","","1","true","","",""
"null","osf_files/Scenes/sad_washcloth.jpg","null","image-keyboard-response","212","648994","0.0-4.0-0.0-2.49","anr94szkyb","0","","","","","",""
"","","","call-function","213","648995","0.0-4.0-0.0-0.50","anr94szkyb","0","2","","","","",""
"2295","osf_files/Objects/tie.jpg","","image-button-response","214","651291","0.0-4.0-0.0-1.50","anr94szkyb","0","","2","true","","",""
"null","osf_files/Scenes/disaster_peoplefleeing.jpg","null","image-keyboard-response","215","653792","0.0-4.0-0.0-2.50","anr94szkyb","0","","","","","",""
"","","","call-function","216","653793","0.0-4.0-0.0-0.51","anr94szkyb","0","2","","","","",""
"1581.0000000001164","osf_files/Objects/handbag.jpg","","image-button-response","217","655375","0.0-4.0-0.0-1.51","anr94szkyb","0","","2","true","","",""
"null","osf_files/Scenes/drugs_alcoholics.JPG","null","image-keyboard-response","218","657876","0.0-4.0-0.0-2.51","anr94szkyb","0","","","","","",""
"","","","call-function","219","657876","0.0-4.0-0.0-0.52","anr94szkyb","0","2","","","","",""
"2559","osf_files/Objects/watch.jpg","","image-button-response","220","660436","0.0-4.0-0.0-1.52","anr94szkyb","0","","2","true","","",""
"null","osf_files/Scenes/fight_peoplegrabbingface.jpg","null","image-keyboard-response","221","662938","0.0-4.0-0.0-2.52","anr94szkyb","0","","","","","",""
"","","","call-function","222","662938","0.0-4.0-0.0-0.53","anr94szkyb","0","1","","","","",""
"1307","osf_files/Objects/necklace.jpg","","image-button-response","223","664247","0.0-4.0-0.0-1.53","anr94szkyb","0","","1","true","","",""
"null","osf_files/Scenes/fight_manthreatgirl.jpg","null","image-keyboard-response","224","666749","0.0-4.0-0.0-2.53","anr94szkyb","0","","","","","",""
"","","","call-function","225","666750","0.0-4.0-0.0-0.54","anr94szkyb","0","0","","","","",""
"2478.9999999998836","osf_files/Objects/carton.jpg","","image-button-response","226","669229","0.0-4.0-0.0-1.54","anr94szkyb","0","","0","true","","",""
"null","osf_files/Scenes/dirt_garbage.jpg","null","image-keyboard-response","227","671732","0.0-4.0-0.0-2.54","anr94szkyb","0","","","","","",""
"","","","call-function","228","671732","0.0-4.0-0.0-0.55","anr94szkyb","0","1","","","","",""
"1312","osf_files/Objects/sunglasses.jpg","","image-button-response","229","673045","0.0-4.0-0.0-1.55","anr94szkyb","0","","1","true","","",""
"null","osf_files/Scenes/drugs_addictfloor.JPG","null","image-keyboard-response","230","675548","0.0-4.0-0.0-2.55","anr94szkyb","0","","","","","",""
"","","","call-function","231","675548","0.0-4.0-0.0-0.56","anr94szkyb","0","0","","","","",""
"2617","osf_files/Objects/trafficlight.jpg","","image-button-response","232","678166","0.0-4.0-0.0-1.56","anr94szkyb","0","","0","true","","",""
"null","osf_files/Scenes/fight_riotsstreetcorner.jpg","null","image-keyboard-response","233","680668","0.0-4.0-0.0-2.56","anr94szkyb","0","","","","","",""
"","","","call-function","234","680669","0.0-4.0-0.0-0.57","anr94szkyb","0","1","","","","",""
"1923","osf_files/Objects/clock.jpg","","image-button-response","235","682593","0.0-4.0-0.0-1.57","anr94szkyb","0","","1","true","","",""
"null","osf_files/Scenes/injury_thin.jpg","null","image-keyboard-response","236","685095","0.0-4.0-0.0-2.57","anr94szkyb","0","","","","","",""
"","","","call-function","237","685096","0.0-4.0-0.0-0.58","anr94szkyb","0","2","","","","",""
"2910","osf_files/Objects/leaves.jpg","","image-button-response","238","688007","0.0-4.0-0.0-1.58","anr94szkyb","0","","2","true","","",""
"null","osf_files/Scenes/animals_starveddog.jpg","null","image-keyboard-response","239","690509","0.0-4.0-0.0-2.58","anr94szkyb","0","","","","","",""
"","","","call-function","240","690510","0.0-4.0-0.0-0.59","anr94szkyb","0","2","","","","",""
"3170","osf_files/Objects/suitcase.jpg","","image-button-response","241","693681","0.0-4.0-0.0-1.59","anr94szkyb","0","","2","true","","",""
"null","osf_files/Scenes/disaster_couple.jpg","null","image-keyboard-response","242","696184","0.0-4.0-0.0-2.59","anr94szkyb","0","","","","","",""
"7934","<p>You will be presented with objects from the pairings that you just studied. Objects will be surrounded with either a red or green frame.</p><p>When the frame around the object is red, please do your best to suppress your memory of the associated scene, and additionally prevent any distracting thoughts from coming into awareness.</p><p>When the frame around the object is green, please recall the associated scene in as much detail as possible.</p><p>Press the spacebar to <b>practice</b> conducting this task.</p>","32","html-keyboard-response","243","704121","0.0-5.0","anr94szkyb","0","","","","","",""
"null","<img src=""osf_files/Objects/skateboard.jpg"" style=""padding:50px;border:20px solid green"" />","null","html-keyboard-response","244","707124","0.0-6.0-0.0","anr94szkyb","0","","","","","",""
"null","<div style=""font-size:60px;"">+</div>","null","html-keyboard-response","245","709529","0.0-6.0-1.0","anr94szkyb","0","","","","","",""
"null","<img src=""osf_files/Objects/gardenhose.jpg"" style=""padding:50px;border:20px solid green"" />","null","html-keyboard-response","246","712531","0.0-6.0-0.1","anr94szkyb","0","","","","","",""
"null","<div style=""font-size:60px;"">+</div>","null","html-keyboard-response","247","714159","0.0-6.0-1.1","anr94szkyb","0","","","","","",""
"null","<img src=""osf_files/Objects/lighter.jpg"" style=""padding:50px;border:20px solid green"" />","null","html-keyboard-response","248","717162","0.0-6.0-0.2","anr94szkyb","0","","","","","",""
"null","<div style=""font-size:60px;"">+</div>","null","html-keyboard-response","249","718865","0.0-6.0-1.2","anr94szkyb","0","","","","","",""
"null","<img src=""osf_files/Objects/leaves.jpg"" style=""padding:50px;border:20px solid red"" />","null","html-keyboard-response","250","721868","0.0-6.0-0.3","anr94szkyb","0","","","","","",""
"null","<div style=""font-size:60px;"">+</div>","null","html-keyboard-response","251","724247","0.0-6.0-1.3","anr94szkyb","0","","","","","",""
"null","<img src=""osf_files/Objects/puzzle.jpg"" style=""padding:50px;border:20px solid green"" />","null","html-keyboard-response","252","727249","0.0-6.0-0.4","anr94szkyb","0","","","","","",""
"null","<div style=""font-size:60px;"">+</div>","null","html-keyboard-response","253","729246","0.0-6.0-1.4","anr94szkyb","0","","","","","",""
"null","<img src=""osf_files/Objects/cellphone.jpg"" style=""padding:50px;border:20px solid red"" />","null","html-keyboard-response","254","732248","0.0-6.0-0.5","anr94szkyb","0","","","","","",""
"null","<div style=""font-size:60px;"">+</div>","null","html-keyboard-response","255","734033","0.0-6.0-1.5","anr94szkyb","0","","","","","",""
"null","<img src=""osf_files/Objects/whitetowel.jpg"" style=""padding:50px;border:20px solid red"" />","null","html-keyboard-response","256","737035","0.0-6.0-0.6","anr94szkyb","0","","","","","",""
"null","<div style=""font-size:60px;"">+</div>","null","html-keyboard-response","257","738827","0.0-6.0-1.6","anr94szkyb","0","","","","","",""
"null","<img src=""osf_files/Objects/ladder.jpg"" style=""padding:50px;border:20px solid green"" />","null","html-keyboard-response","258","741830","0.0-6.0-0.7","anr94szkyb","0","","","","","",""
"null","<div style=""font-size:60px;"">+</div>","null","html-keyboard-response","259","743266","0.0-6.0-1.7","anr94szkyb","0","","","","","",""
"null","<img src=""osf_files/Objects/scarf.jpg"" style=""padding:50px;border:20px solid green"" />","null","html-keyboard-response","260","746268","0.0-6.0-0.8","anr94szkyb","0","","","","","",""
"null","<div style=""font-size:60px;"">+</div>","null","html-keyboard-response","261","747975","0.0-6.0-1.8","anr94szkyb","0","","","","","",""
"null","<img src=""osf_files/Objects/lock.jpg"" style=""padding:50px;border:20px solid red"" />","null","html-keyboard-response","262","750977","0.0-6.0-0.9","anr94szkyb","0","","","","","",""
"null","<div style=""font-size:60px;"">+</div>","null","html-keyboard-response","263","752383","0.0-6.0-1.9","anr94szkyb","0","","","","","",""
"null","<img src=""osf_files/Objects/socket.jpg"" style=""padding:50px;border:20px solid red"" />","null","html-keyboard-response","264","755386","0.0-6.0-0.10","anr94szkyb","0","","","","","",""
"null","<div style=""font-size:60px;"">+</div>","null","html-keyboard-response","265","756898","0.0-6.0-1.10","anr94szkyb","0","","","","","",""
"null","<img src=""osf_files/Objects/axe.jpg"" style=""padding:50px;border:20px solid red"" />","null","html-keyboard-response","266","759900","0.0-6.0-0.11","anr94szkyb","0","","","","","",""
"null","<div style=""font-size:60px;"">+</div>","null","html-keyboard-response","267","762497","0.0-6.0-1.11","anr94szkyb","0","","","","","",""
"6528.000000000116","<p>The practice portion has concluded. Press the spacebar to continue onto the task.</p><p><b>Instructions:</b> When the frame around the object is red, please do your best to suppress your memory of the associated scene, and additionally prevent any distracting thoughts from coming into awareness. When the frame around the object is green, please recall the associated scene in as much detail as possible.</p>","32","html-keyboard-response","268","769025","0.0-7.0","anr94szkyb","0","","","","","",""
"null","<img src=""osf_files/Objects/garbagebag.jpg"" style=""padding:50px;border:20px solid red"" />","null","html-keyboard-response","269","772028","0.0-8.0-0.0","anr94szkyb","0","","","","","",""
"null","<div style=""font-size:60px;"">+</div>","null","html-keyboard-response","270","773509","0.0-8.0-1.0","anr94szkyb","0","","","","","",""
"null","<img src=""osf_files/Objects/juice.jpg"" style=""padding:50px;border:20px solid green"" />","null","html-keyboard-response","271","776512","0.0-8.0-0.1","anr94szkyb","0","","","","","",""
"null","<div style=""font-size:60px;"">+</div>","null","html-keyboard-response","272","779074","0.0-8.0-1.1","anr94szkyb","0","","","","","",""
"null","<img src=""osf_files/Objects/rug.jpg"" style=""padding:50px;border:20px solid red"" />","null","html-keyboard-response","273","782077","0.0-8.0-0.2","anr94szkyb","0","","","","","",""
"null","<div style=""font-size:60px;"">+</div>","null","html-keyboard-response","274","784168","0.0-8.0-1.2","anr94szkyb","0","","","","","",""
"null","<img src=""osf_files/Objects/bottle.jpg"" style=""padding:50px;border:20px solid red"" />","null","html-keyboard-response","275","787169","0.0-8.0-0.3","anr94szkyb","0","","","","","",""
"null","<div style=""font-size:60px;"">+</div>","null","html-keyboard-response","276","788957","0.0-8.0-1.3","anr94szkyb","0","","","","","",""
"null","<img src=""osf_files/Objects/garbagebin.jpg"" style=""padding:50px;border:20px solid red"" />","null","html-keyboard-response","277","791960","0.0-8.0-0.4","anr94szkyb","0","","","","","",""
"null","<div style=""font-size:60px;"">+</div>","null","html-keyboard-response","278","793539","0.0-8.0-1.4","anr94szkyb","0","","","","","",""
"null","<img src=""osf_files/Objects/doll.jpg"" style=""padding:50px;border:20px solid red"" />","null","html-keyboard-response","279","796541","0.0-8.0-0.5","anr94szkyb","0","","","","","",""
"null","<div style=""font-size:60px;"">+</div>","null","html-keyboard-response","280","798955","0.0-8.0-1.5","anr94szkyb","0","","","","","",""
"null","<img src=""osf_files/Objects/sunglasses.jpg"" style=""padding:50px;border:20px solid red"" />","null","html-keyboard-response","281","801957","0.0-8.0-0.6","anr94szkyb","0","","","","","",""
"null","<div style=""font-size:60px;"">+</div>","null","html-keyboard-response","282","804092","0.0-8.0-1.6","anr94szkyb","0","","","","","",""
"null","<img src=""osf_files/Objects/hat.jpg"" style=""padding:50px;border:20px solid green"" />","null","html-keyboard-response","283","807095","0.0-8.0-0.7","anr94szkyb","0","","","","","",""
"null","<div style=""font-size:60px;"">+</div>","null","html-keyboard-response","284","809061","0.0-8.0-1.7","anr94szkyb","0","","","","","",""
"null","<img src=""osf_files/Objects/woolenhat.jpg"" style=""padding:50px;border:20px solid green"" />","null","html-keyboard-response","285","812063","0.0-8.0-0.8","anr94szkyb","0","","","","","",""
"null","<div style=""font-size:60px;"">+</div>","null","html-keyboard-response","286","814157","0.0-8.0-1.8","anr94szkyb","0","","","","","",""
"null","<img src=""osf_files/Objects/tie.jpg"" style=""padding:50px;border:20px solid red"" />","null","html-keyboard-response","287","817160","0.0-8.0-0.9","anr94szkyb","0","","","","","",""
"null","<div style=""font-size:60px;"">+</div>","null","html-keyboard-response","288","819390","0.0-8.0-1.9","anr94szkyb","0","","","","","",""
"null","<img src=""osf_files/Objects/sneakers.jpg"" style=""padding:50px;border:20px solid green"" />","null","html-keyboard-response","289","822392","0.0-8.0-0.10","anr94szkyb","0","","","","","",""
"null","<div style=""font-size:60px;"">+</div>","null","html-keyboard-response","290","824477","0.0-8.0-1.10","anr94szkyb","0","","","","","",""
"null","<img src=""osf_files/Objects/garbagebag.jpg"" style=""padding:50px;border:20px solid red"" />","null","html-keyboard-response","291","827479","0.0-8.0-0.11","anr94szkyb","0","","","","","",""
"null","<div style=""font-size:60px;"">+</div>","null","html-keyboard-response","292","828903","0.0-8.0-1.11","anr94szkyb","0","","","","","",""
"null","<img src=""osf_files/Objects/trafficlight.jpg"" style=""padding:50px;border:20px solid green"" />","null","html-keyboard-response","293","831905","0.0-8.0-0.12","anr94szkyb","0","","","","","",""
"null","<div style=""font-size:60px;"">+</div>","null","html-keyboard-response","294","833715","0.0-8.0-1.12","anr94szkyb","0","","","","","",""
"null","<img src=""osf_files/Objects/broom.jpg"" style=""padding:50px;border:20px solid green"" />","null","html-keyboard-response","295","836717","0.0-8.0-0.13","anr94szkyb","0","","","","","",""
"null","<div style=""font-size:60px;"">+</div>","null","html-keyboard-response","296","839047","0.0-8.0-1.13","anr94szkyb","0","","","","","",""
"null","<img src=""osf_files/Objects/boot.jpg"" style=""padding:50px;border:20px solid red"" />","null","html-keyboard-response","297","842049","0.0-8.0-0.14","anr94szkyb","0","","","","","",""
"null","<div style=""font-size:60px;"">+</div>","null","html-keyboard-response","298","844183","0.0-8.0-1.14","anr94szkyb","0","","","","","",""
"null","<img src=""osf_files/Objects/camcorder.jpg"" style=""padding:50px;border:20px solid red"" />","null","html-keyboard-response","299","847185","0.0-8.0-0.15","anr94szkyb","0","","","","","",""
"null","<div style=""font-size:60px;"">+</div>","null","html-keyboard-response","300","849313","0.0-8.0-1.15","anr94szkyb","0","","","","","",""
"null","<img src=""osf_files/Objects/microphone.jpg"" style=""padding:50px;border:20px solid green"" />","null","html-keyboard-response","301","852315","0.0-8.0-0.16","anr94szkyb","0","","","","","",""
"null","<div style=""font-size:60px;"">+</div>","null","html-keyboard-response","302","854232","0.0-8.0-1.16","anr94szkyb","0","","","","","",""
"null","<img src=""osf_files/Objects/handbag.jpg"" style=""padding:50px;border:20px solid green"" />","null","html-keyboard-response","303","857234","0.0-8.0-0.17","anr94szkyb","0","","","","","",""
"null","<div style=""font-size:60px;"">+</div>","null","html-keyboard-response","304","859091","0.0-8.0-1.17","anr94szkyb","0","","","","","",""
"null","<img src=""osf_files/Objects/necklace.jpg"" style=""padding:50px;border:20px solid green"" />","null","html-keyboard-response","305","862094","0.0-8.0-0.18","anr94szkyb","0","","","","","",""
"null","<div style=""font-size:60px;"">+</div>","null","html-keyboard-response","306","863755","0.0-8.0-1.18","anr94szkyb","0","","","","","",""
"null","<img src=""osf_files/Objects/tv.jpg"" style=""padding:50px;border:20px solid green"" />","null","html-keyboard-response","307","866758","0.0-8.0-0.19","anr94szkyb","0","","","","","",""
"null","<div style=""font-size:60px;"">+</div>","null","html-keyboard-response","308","868914","0.0-8.0-1.19","anr94szkyb","0","","","","","",""
"null","<img src=""osf_files/Objects/tv.jpg"" style=""padding:50px;border:20px solid green"" />","null","html-keyboard-response","309","871916","0.0-8.0-0.20","anr94szkyb","0","","","","","",""
"null","<div style=""font-size:60px;"">+</div>","null","html-keyboard-response","310","874097","0.0-8.0-1.20","anr94szkyb","0","","","","","",""
"null","<img src=""osf_files/Objects/rockingchair.jpg"" style=""padding:50px;border:20px solid green"" />","null","html-keyboard-response","311","877099","0.0-8.0-0.21","anr94szkyb","0","","","","","",""
"null","<div style=""font-size:60px;"">+</div>","null","html-keyboard-response","312","878973","0.0-8.0-1.21","anr94szkyb","0","","","","","",""
"null","<img src=""osf_files/Objects/handbag.jpg"" style=""padding:50px;border:20px solid green"" />","null","html-keyboard-response","313","881974","0.0-8.0-0.22","anr94szkyb","0","","","","","",""
"null","<div style=""font-size:60px;"">+</div>","null","html-keyboard-response","314","883434","0.0-8.0-1.22","anr94szkyb","0","","","","","",""
"null","<img src=""osf_files/Objects/hat.jpg"" style=""padding:50px;border:20px solid green"" />","null","html-keyboard-response","315","886436","0.0-8.0-0.23","anr94szkyb","0","","","","","",""
"null","<div style=""font-size:60px;"">+</div>","null","html-keyboard-response","316","888755","0.0-8.0-1.23","anr94szkyb","0","","","","","",""
"null","<img src=""osf_files/Objects/newspaper2.jpg"" style=""padding:50px;border:20px solid red"" />","null","html-keyboard-response","317","891757","0.0-8.0-0.24","anr94szkyb","0","","","","","",""
"null","<div style=""font-size:60px;"">+</div>","null","html-keyboard-response","318","893194","0.0-8.0-1.24","anr94szkyb","0","","","","","",""
"null","<img src=""osf_files/Objects/basket.jpg"" style=""padding:50px;border:20px solid green"" />","null","html-keyboard-response","319","896196","0.0-8.0-0.25","anr94szkyb","0","","","","","",""
"null","<div style=""font-size:60px;"">+</div>","null","html-keyboard-response","320","897713","0.0-8.0-1.25","anr94szkyb","0","","","","","",""
"null","<img src=""osf_files/Objects/hanger.jpg"" style=""padding:50px;border:20px solid green"" />","null","html-keyboard-response","321","900714","0.0-8.0-0.26","anr94szkyb","0","","","","","",""
"null","<div style=""font-size:60px;"">+</div>","null","html-keyboard-response","322","902881","0.0-8.0-1.26","anr94szkyb","0","","","","","",""
"null","<img src=""osf_files/Objects/trafficlight.jpg"" style=""padding:50px;border:20px solid green"" />","null","html-keyboard-response","323","905884","0.0-8.0-0.27","anr94szkyb","0","","","","","",""
"null","<div style=""font-size:60px;"">+</div>","null","html-keyboard-response","324","908238","0.0-8.0-1.27","anr94szkyb","0","","","","","",""
"null","<img src=""osf_files/Objects/watch.jpg"" style=""padding:50px;border:20px solid red"" />","null","html-keyboard-response","325","911240","0.0-8.0-0.28","anr94szkyb","0","","","","","",""
"null","<div style=""font-size:60px;"">+</div>","null","html-keyboard-response","326","913741","0.0-8.0-1.28","anr94szkyb","0","","","","","",""
"null","<img src=""osf_files/Objects/boot.jpg"" style=""padding:50px;border:20px solid red"" />","null","html-keyboard-response","327","916743","0.0-8.0-0.29","anr94szkyb","0","","","","","",""
"null","<div style=""font-size:60px;"">+</div>","null","html-keyboard-response","328","919254","0.0-8.0-1.29","anr94szkyb","0","","","","","",""
"null","<img src=""osf_files/Objects/necklace.jpg"" style=""padding:50px;border:20px solid green"" />","null","html-keyboard-response","329","922256","0.0-8.0-0.30","anr94szkyb","0","","","","","",""
"null","<div style=""font-size:60px;"">+</div>","null","html-keyboard-response","330","924743","0.0-8.0-1.30","anr94szkyb","0","","","","","",""
"null","<img src=""osf_files/Objects/rug.jpg"" style=""padding:50px;border:20px solid red"" />","null","html-keyboard-response","331","927745","0.0-8.0-0.31","anr94szkyb","0","","","","","",""
"null","<div style=""font-size:60px;"">+</div>","null","html-keyboard-response","332","929250","0.0-8.0-1.31","anr94szkyb","0","","","","","",""
"null","<img src=""osf_files/Objects/watch.jpg"" style=""padding:50px;border:20px solid red"" />","null","html-keyboard-response","333","932252","0.0-8.0-0.32","anr94szkyb","0","","","","","",""
"null","<div style=""font-size:60px;"">+</div>","null","html-keyboard-response","334","933789","0.0-8.0-1.32","anr94szkyb","0","","","","","",""
"null","<img src=""osf_files/Objects/newspaper2.jpg"" style=""padding:50px;border:20px solid red"" />","null","html-keyboard-response","335","936791","0.0-8.0-0.33","anr94szkyb","0","","","","","",""
"null","<div style=""font-size:60px;"">+</div>","null","html-keyboard-response","336","938626","0.0-8.0-1.33","anr94szkyb","0","","","","","",""
"null","<img src=""osf_files/Objects/redflag.jpg"" style=""padding:50px;border:20px solid green"" />","null","html-keyboard-response","337","941627","0.0-8.0-0.34","anr94szkyb","0","","","","","",""
"null","<div style=""font-size:60px;"">+</div>","null","html-keyboard-response","338","943942","0.0-8.0-1.34","anr94szkyb","0","","","","","",""
"null","<img src=""osf_files/Objects/clock.jpg"" style=""padding:50px;border:20px solid green"" />","null","html-keyboard-response","339","946944","0.0-8.0-0.35","anr94szkyb","0","","","","","",""
"null","<div style=""font-size:60px;"">+</div>","null","html-keyboard-response","340","949404","0.0-8.0-1.35","anr94szkyb","0","","","","","",""
"null","<img src=""osf_files/Objects/juice.jpg"" style=""padding:50px;border:20px solid green"" />","null","html-keyboard-response","341","952406","0.0-8.0-0.36","anr94szkyb","0","","","","","",""
"null","<div style=""font-size:60px;"">+</div>","null","html-keyboard-response","342","954887","0.0-8.0-1.36","anr94szkyb","0","","","","","",""
"null","<img src=""osf_files/Objects/comb.jpg"" style=""padding:50px;border:20px solid red"" />","null","html-keyboard-response","343","957889","0.0-8.0-0.37","anr94szkyb","0","","","","","",""
"null","<div style=""font-size:60px;"">+</div>","null","html-keyboard-response","344","960251","0.0-8.0-1.37","anr94szkyb","0","","","","","",""
"null","<img src=""osf_files/Objects/clock.jpg"" style=""padding:50px;border:20px solid green"" />","null","html-keyboard-response","345","963253","0.0-8.0-0.38","anr94szkyb","0","","","","","",""
"null","<div style=""font-size:60px;"">+</div>","null","html-keyboard-response","346","964666","0.0-8.0-1.38","anr94szkyb","0","","","","","",""
"null","<img src=""osf_files/Objects/comb.jpg"" style=""padding:50px;border:20px solid red"" />","null","html-keyboard-response","347","967668","0.0-8.0-0.39","anr94szkyb","0","","","","","",""
"null","<div style=""font-size:60px;"">+</div>","null","html-keyboard-response","348","970263","0.0-8.0-1.39","anr94szkyb","0","","","","","",""
"null","<img src=""osf_files/Objects/tie.jpg"" style=""padding:50px;border:20px solid red"" />","null","html-keyboard-response","349","973265","0.0-8.0-0.40","anr94szkyb","0","","","","","",""
"null","<div style=""font-size:60px;"">+</div>","null","html-keyboard-response","350","975455","0.0-8.0-1.40","anr94szkyb","0","","","","","",""
"null","<img src=""osf_files/Objects/shoppingcart.jpg"" style=""padding:50px;border:20px solid red"" />","null","html-keyboard-response","351","978457","0.0-8.0-0.41","anr94szkyb","0","","","","","",""
"null","<div style=""font-size:60px;"">+</div>","null","html-keyboard-response","352","980721","0.0-8.0-1.41","anr94szkyb","0","","","","","",""
"null","<img src=""osf_files/Objects/mug.jpg"" style=""padding:50px;border:20px solid red"" />","null","html-keyboard-response","353","983723","0.0-8.0-0.42","anr94szkyb","0","","","","","",""
"null","<div style=""font-size:60px;"">+</div>","null","html-keyboard-response","354","985427","0.0-8.0-1.42","anr94szkyb","0","","","","","",""
"null","<img src=""osf_files/Objects/doll.jpg"" style=""padding:50px;border:20px solid red"" />","null","html-keyboard-response","355","988429","0.0-8.0-0.43","anr94szkyb","0","","","","","",""
"null","<div style=""font-size:60px;"">+</div>","null","html-keyboard-response","356","990298","0.0-8.0-1.43","anr94szkyb","0","","","","","",""
"null","<img src=""osf_files/Objects/woolenhat.jpg"" style=""padding:50px;border:20px solid green"" />","null","html-keyboard-response","357","993300","0.0-8.0-0.44","anr94szkyb","0","","","","","",""
"null","<div style=""font-size:60px;"">+</div>","null","html-keyboard-response","358","995519","0.0-8.0-1.44","anr94szkyb","0","","","","","",""
"null","<img src=""osf_files/Objects/sneakers.jpg"" style=""padding:50px;border:20px solid green"" />","null","html-keyboard-response","359","998521","0.0-8.0-0.45","anr94szkyb","0","","","","","",""
"null","<div style=""font-size:60px;"">+</div>","null","html-keyboard-response","360","1000613","0.0-8.0-1.45","anr94szkyb","0","","","","","",""
"null","<img src=""osf_files/Objects/socks.jpg"" style=""padding:50px;border:20px solid red"" />","null","html-keyboard-response","361","1003615","0.0-8.0-0.46","anr94szkyb","0","","","","","",""
"null","<div style=""font-size:60px;"">+</div>","null","html-keyboard-response","362","1005806","0.0-8.0-1.46","anr94szkyb","0","","","","","",""
"null","<img src=""osf_files/Objects/rockingchair.jpg"" style=""padding:50px;border:20px solid green"" />","null","html-keyboard-response","363","1008808","0.0-8.0-0.47","anr94szkyb","0","","","","","",""
"null","<div style=""font-size:60px;"">+</div>","null","html-keyboard-response","364","1011110","0.0-8.0-1.47","anr94szkyb","0","","","","","",""
"null","<img src=""osf_files/Objects/hanger.jpg"" style=""padding:50px;border:20px solid green"" />","null","html-keyboard-response","365","1014112","0.0-8.0-0.48","anr94szkyb","0","","","","","",""
"null","<div style=""font-size:60px;"">+</div>","null","html-keyboard-response","366","1016120","0.0-8.0-1.48","anr94szkyb","0","","","","","",""
"null","<img src=""osf_files/Objects/dress.jpg"" style=""padding:50px;border:20px solid green"" />","null","html-keyboard-response","367","1019122","0.0-8.0-0.49","anr94szkyb","0","","","","","",""
"null","<div style=""font-size:60px;"">+</div>","null","html-keyboard-response","368","1021336","0.0-8.0-1.49","anr94szkyb","0","","","","","",""
"null","<img src=""osf_files/Objects/camcorder.jpg"" style=""padding:50px;border:20px solid red"" />","null","html-keyboard-response","369","1024339","0.0-8.0-0.50","anr94szkyb","0","","","","","",""
"null","<div style=""font-size:60px;"">+</div>","null","html-keyboard-response","370","1025906","0.0-8.0-1.50","anr94szkyb","0","","","","","",""
"null","<img src=""osf_files/Objects/socks.jpg"" style=""padding:50px;border:20px solid red"" />","null","html-keyboard-response","371","1028908","0.0-8.0-0.51","anr94szkyb","0","","","","","",""
"null","<div style=""font-size:60px;"">+</div>","null","html-keyboard-response","372","1031348","0.0-8.0-1.51","anr94szkyb","0","","","","","",""
"null","<img src=""osf_files/Objects/redflag.jpg"" style=""padding:50px;border:20px solid green"" />","null","html-keyboard-response","373","1034351","0.0-8.0-0.52","anr94szkyb","0","","","","","",""
"null","<div style=""font-size:60px;"">+</div>","null","html-keyboard-response","374","1035770","0.0-8.0-1.52","anr94szkyb","0","","","","","",""
"null","<img src=""osf_files/Objects/microphone.jpg"" style=""padding:50px;border:20px solid green"" />","null","html-keyboard-response","375","1038772","0.0-8.0-0.53","anr94szkyb","0","","","","","",""
"null","<div style=""font-size:60px;"">+</div>","null","html-keyboard-response","376","1041156","0.0-8.0-1.53","anr94szkyb","0","","","","","",""
"null","<img src=""osf_files/Objects/basket.jpg"" style=""padding:50px;border:20px solid green"" />","null","html-keyboard-response","377","1044159","0.0-8.0-0.54","anr94szkyb","0","","","","","",""
"null","<div style=""font-size:60px;"">+</div>","null","html-keyboard-response","378","1046104","0.0-8.0-1.54","anr94szkyb","0","","","","","",""
"null","<img src=""osf_files/Objects/dress.jpg"" style=""padding:50px;border:20px solid green"" />","null","html-keyboard-response","379","1049106","0.0-8.0-0.55","anr94szkyb","0","","","","","",""
"null","<div style=""font-size:60px;"">+</div>","null","html-keyboard-response","380","1051664","0.0-8.0-1.55","anr94szkyb","0","","","","","",""
"null","<img src=""osf_files/Objects/garbagebin.jpg"" style=""padding:50px;border:20px solid red"" />","null","html-keyboard-response","381","1054667","0.0-8.0-0.56","anr94szkyb","0","","","","","",""
"null","<div style=""font-size:60px;"">+</div>","null","html-keyboard-response","382","1056599","0.0-8.0-1.56","anr94szkyb","0","","","","","",""
"null","<img src=""osf_files/Objects/cigarette.jpg"" style=""padding:50px;border:20px solid red"" />","null","html-keyboard-response","383","1059601","0.0-8.0-0.57","anr94szkyb","0","","","","","",""
"null","<div style=""font-size:60px;"">+</div>","null","html-keyboard-response","384","1061060","0.0-8.0-1.57","anr94szkyb","0","","","","","",""
"null","<img src=""osf_files/Objects/shoppingcart.jpg"" style=""padding:50px;border:20px solid red"" />","null","html-keyboard-response","385","1064063","0.0-8.0-0.58","anr94szkyb","0","","","","","",""
"null","<div style=""font-size:60px;"">+</div>","null","html-keyboard-response","386","1066579","0.0-8.0-1.58","anr94szkyb","0","","","","","",""
"null","<img src=""osf_files/Objects/bottle.jpg"" style=""padding:50px;border:20px solid red"" />","null","html-keyboard-response","387","1069580","0.0-8.0-0.59","anr94szkyb","0","","","","","",""
"null","<div style=""font-size:60px;"">+</div>","null","html-keyboard-response","388","1071364","0.0-8.0-1.59","anr94szkyb","0","","","","","",""
"null","<img src=""osf_files/Objects/broom.jpg"" style=""padding:50px;border:20px solid green"" />","null","html-keyboard-response","389","1074366","0.0-8.0-0.60","anr94szkyb","0","","","","","",""
"null","<div style=""font-size:60px;"">+</div>","null","html-keyboard-response","390","1075943","0.0-8.0-1.60","anr94szkyb","0","","","","","",""
"null","<img src=""osf_files/Objects/cigarette.jpg"" style=""padding:50px;border:20px solid red"" />","null","html-keyboard-response","391","1078946","0.0-8.0-0.61","anr94szkyb","0","","","","","",""
"null","<div style=""font-size:60px;"">+</div>","null","html-keyboard-response","392","1080633","0.0-8.0-1.61","anr94szkyb","0","","","","","",""
"null","<img src=""osf_files/Objects/sunglasses.jpg"" style=""padding:50px;border:20px solid red"" />","null","html-keyboard-response","393","1083635","0.0-8.0-0.62","anr94szkyb","0","","","","","",""
"null","<div style=""font-size:60px;"">+</div>","null","html-keyboard-response","394","1085802","0.0-8.0-1.62","anr94szkyb","0","","","","","",""
"null","<img src=""osf_files/Objects/mug.jpg"" style=""padding:50px;border:20px solid red"" />","null","html-keyboard-response","395","1088805","0.0-8.0-0.63","anr94szkyb","0","","","","","",""
"null","<div style=""font-size:60px;"">+</div>","null","html-keyboard-response","396","1091088","0.0-8.0-1.63","anr94szkyb","0","","","","","",""
"null","<img src=""osf_files/Objects/garbagebag.jpg"" style=""padding:50px;border:20px solid red"" />","null","html-keyboard-response","397","1094091","0.0-8.0-0.64","anr94szkyb","0","","","","","",""
"null","<div style=""font-size:60px;"">+</div>","null","html-keyboard-response","398","1096681","0.0-8.0-1.64","anr94szkyb","0","","","","","",""
"null","<img src=""osf_files/Objects/mug.jpg"" style=""padding:50px;border:20px solid red"" />","null","html-keyboard-response","399","1099683","0.0-8.0-0.65","anr94szkyb","0","","","","","",""
"null","<div style=""font-size:60px;"">+</div>","null","html-keyboard-response","400","1101950","0.0-8.0-1.65","anr94szkyb","0","","","","","",""
"null","<img src=""osf_files/Objects/watch.jpg"" style=""padding:50px;border:20px solid red"" />","null","html-keyboard-response","401","1104953","0.0-8.0-0.66","anr94szkyb","0","","","","","",""
"null","<div style=""font-size:60px;"">+</div>","null","html-keyboard-response","402","1106953","0.0-8.0-1.66","anr94szkyb","0","","","","","",""
"null","<img src=""osf_files/Objects/sneakers.jpg"" style=""padding:50px;border:20px solid green"" />","null","html-keyboard-response","403","1109955","0.0-8.0-0.67","anr94szkyb","0","","","","","",""
"null","<div style=""font-size:60px;"">+</div>","null","html-keyboard-response","404","1111808","0.0-8.0-1.67","anr94szkyb","0","","","","","",""
"null","<img src=""osf_files/Objects/shoppingcart.jpg"" style=""padding:50px;border:20px solid red"" />","null","html-keyboard-response","405","1114811","0.0-8.0-0.68","anr94szkyb","0","","","","","",""
"null","<div style=""font-size:60px;"">+</div>","null","html-keyboard-response","406","1116555","0.0-8.0-1.68","anr94szkyb","0","","","","","",""
"null","<img src=""osf_files/Objects/trafficlight.jpg"" style=""padding:50px;border:20px solid green"" />","null","html-keyboard-response","407","1119558","0.0-8.0-0.69","anr94szkyb","0","","","","","",""
"null","<div style=""font-size:60px;"">+</div>","null","html-keyboard-response","408","1122034","0.0-8.0-1.69","anr94szkyb","0","","","","","",""
"null","<img src=""osf_files/Objects/clock.jpg"" style=""padding:50px;border:20px solid green"" />","null","html-keyboard-response","409","1125037","0.0-8.0-0.70","anr94szkyb","0","","","","","",""
"null","<div style=""font-size:60px;"">+</div>","null","html-keyboard-response","410","1127051","0.0-8.0-1.70","anr94szkyb","0","","","","","",""
"null","<img src=""osf_files/Objects/woolenhat.jpg"" style=""padding:50px;border:20px solid green"" />","null","html-keyboard-response","411","1130053","0.0-8.0-0.71","anr94szkyb","0","","","","","",""
"null","<div style=""font-size:60px;"">+</div>","null","html-keyboard-response","412","1132151","0.0-8.0-1.71","anr94szkyb","0","","","","","",""
"null","<img src=""osf_files/Objects/watch.jpg"" style=""padding:50px;border:20px solid red"" />","null","html-keyboard-response","413","1135154","0.0-8.0-0.72","anr94szkyb","0","","","","","",""
"null","<div style=""font-size:60px;"">+</div>","null","html-keyboard-response","414","1136914","0.0-8.0-1.72","anr94szkyb","0","","","","","",""
"null","<img src=""osf_files/Objects/woolenhat.jpg"" style=""padding:50px;border:20px solid green"" />","null","html-keyboard-response","415","1139916","0.0-8.0-0.73","anr94szkyb","0","","","","","",""
"null","<div style=""font-size:60px;"">+</div>","null","html-keyboard-response","416","1141427","0.0-8.0-1.73","anr94szkyb","0","","","","","",""
"null","<img src=""osf_files/Objects/socks.jpg"" style=""padding:50px;border:20px solid red"" />","null","html-keyboard-response","417","1144429","0.0-8.0-0.74","anr94szkyb","0","","","","","",""
"null","<div style=""font-size:60px;"">+</div>","null","html-keyboard-response","418","1146249","0.0-8.0-1.74","anr94szkyb","0","","","","","",""
"null","<img src=""osf_files/Objects/newspaper2.jpg"" style=""padding:50px;border:20px solid red"" />","null","html-keyboard-response","419","1149251","0.0-8.0-0.75","anr94szkyb","0","","","","","",""
"null","<div style=""font-size:60px;"">+</div>","null","html-keyboard-response","420","1151710","0.0-8.0-1.75","anr94szkyb","0","","","","","",""
"null","<img src=""osf_files/Objects/basket.jpg"" style=""padding:50px;border:20px solid green"" />","null","html-keyboard-response","421","1154713","0.0-8.0-0.76","anr94szkyb","0","","","","","",""
"null","<div style=""font-size:60px;"">+</div>","null","html-keyboard-response","422","1157300","0.0-8.0-1.76","anr94szkyb","0","","","","","",""
"null","<img src=""osf_files/Objects/redflag.jpg"" style=""padding:50px;border:20px solid green"" />","null","html-keyboard-response","423","1160302","0.0-8.0-0.77","anr94szkyb","0","","","","","",""
"null","<div style=""font-size:60px;"">+</div>","null","html-keyboard-response","424","1162899","0.0-8.0-1.77","anr94szkyb","0","","","","","",""
"null","<img src=""osf_files/Objects/comb.jpg"" style=""padding:50px;border:20px solid red"" />","null","html-keyboard-response","425","1165901","0.0-8.0-0.78","anr94szkyb","0","","","","","",""
"null","<div style=""font-size:60px;"">+</div>","null","html-keyboard-response","426","1168275","0.0-8.0-1.78","anr94szkyb","0","","","","","",""
"null","<img src=""osf_files/Objects/microphone.jpg"" style=""padding:50px;border:20px solid green"" />","null","html-keyboard-response","427","1171276","0.0-8.0-0.79","anr94szkyb","0","","","","","",""
"null","<div style=""font-size:60px;"">+</div>","null","html-keyboard-response","428","1173675","0.0-8.0-1.79","anr94szkyb","0","","","","","",""
"null","<img src=""osf_files/Objects/microphone.jpg"" style=""padding:50px;border:20px solid green"" />","null","html-keyboard-response","429","1176677","0.0-8.0-0.80","anr94szkyb","0","","","","","",""
"null","<div style=""font-size:60px;"">+</div>","null","html-keyboard-response","430","1179209","0.0-8.0-1.80","anr94szkyb","0","","","","","",""
"null","<img src=""osf_files/Objects/doll.jpg"" style=""padding:50px;border:20px solid red"" />","null","html-keyboard-response","431","1182211","0.0-8.0-0.81","anr94szkyb","0","","","","","",""
"null","<div style=""font-size:60px;"">+</div>","null","html-keyboard-response","432","1184149","0.0-8.0-1.81","anr94szkyb","0","","","","","",""
"null","<img src=""osf_files/Objects/dress.jpg"" style=""padding:50px;border:20px solid green"" />","null","html-keyboard-response","433","1187151","0.0-8.0-0.82","anr94szkyb","0","","","","","",""
"null","<div style=""font-size:60px;"">+</div>","null","html-keyboard-response","434","1189264","0.0-8.0-1.82","anr94szkyb","0","","","","","",""
"null","<img src=""osf_files/Objects/hat.jpg"" style=""padding:50px;border:20px solid green"" />","null","html-keyboard-response","435","1192266","0.0-8.0-0.83","anr94szkyb","0","","","","","",""
"null","<div style=""font-size:60px;"">+</div>","null","html-keyboard-response","436","1194119","0.0-8.0-1.83","anr94szkyb","0","","","","","",""
"null","<img src=""osf_files/Objects/camcorder.jpg"" style=""padding:50px;border:20px solid red"" />","null","html-keyboard-response","437","1197120","0.0-8.0-0.84","anr94szkyb","0","","","","","",""
"null","<div style=""font-size:60px;"">+</div>","null","html-keyboard-response","438","1199066","0.0-8.0-1.84","anr94szkyb","0","","","","","",""
"null","<img src=""osf_files/Objects/tie.jpg"" style=""padding:50px;border:20px solid red"" />","null","html-keyboard-response","439","1202069","0.0-8.0-0.85","anr94szkyb","0","","","","","",""
"null","<div style=""font-size:60px;"">+</div>","null","html-keyboard-response","440","1203846","0.0-8.0-1.85","anr94szkyb","0","","","","","",""
"null","<img src=""osf_files/Objects/redflag.jpg"" style=""padding:50px;border:20px solid green"" />","null","html-keyboard-response","441","1206848","0.0-8.0-0.86","anr94szkyb","0","","","","","",""
"null","<div style=""font-size:60px;"">+</div>","null","html-keyboard-response","442","1209067","0.0-8.0-1.86","anr94szkyb","0","","","","","",""
"null","<img src=""osf_files/Objects/garbagebin.jpg"" style=""padding:50px;border:20px solid red"" />","null","html-keyboard-response","443","1212069","0.0-8.0-0.87","anr94szkyb","0","","","","","",""
"null","<div style=""font-size:60px;"">+</div>","null","html-keyboard-response","444","1214437","0.0-8.0-1.87","anr94szkyb","0","","","","","",""
"null","<img src=""osf_files/Objects/rockingchair.jpg"" style=""padding:50px;border:20px solid green"" />","null","html-keyboard-response","445","1217439","0.0-8.0-0.88","anr94szkyb","0","","","","","",""
"null","<div style=""font-size:60px;"">+</div>","null","html-keyboard-response","446","1219013","0.0-8.0-1.88","anr94szkyb","0","","","","","",""
"null","<img src=""osf_files/Objects/hanger.jpg"" style=""padding:50px;border:20px solid green"" />","null","html-keyboard-response","447","1222015","0.0-8.0-0.89","anr94szkyb","0","","","","","",""
"null","<div style=""font-size:60px;"">+</div>","null","html-keyboard-response","448","1224593","0.0-8.0-1.89","anr94szkyb","0","","","","","",""
"null","<img src=""osf_files/Objects/tv.jpg"" style=""padding:50px;border:20px solid green"" />","null","html-keyboard-response","449","1227595","0.0-8.0-0.90","anr94szkyb","0","","","","","",""
"null","<div style=""font-size:60px;"">+</div>","null","html-keyboard-response","450","1229629","0.0-8.0-1.90","anr94szkyb","0","","","","","",""
"null","<img src=""osf_files/Objects/sneakers.jpg"" style=""padding:50px;border:20px solid green"" />","null","html-keyboard-response","451","1232631","0.0-8.0-0.91","anr94szkyb","0","","","","","",""
"null","<div style=""font-size:60px;"">+</div>","null","html-keyboard-response","452","1235029","0.0-8.0-1.91","anr94szkyb","0","","","","","",""
"null","<img src=""osf_files/Objects/garbagebag.jpg"" style=""padding:50px;border:20px solid red"" />","null","html-keyboard-response","453","1238031","0.0-8.0-0.92","anr94szkyb","0","","","","","",""
"null","<div style=""font-size:60px;"">+</div>","null","html-keyboard-response","454","1240398","0.0-8.0-1.92","anr94szkyb","0","","","","","",""
"null","<img src=""osf_files/Objects/cigarette.jpg"" style=""padding:50px;border:20px solid red"" />","null","html-keyboard-response","455","1243401","0.0-8.0-0.93","anr94szkyb","0","","","","","",""
"null","<div style=""font-size:60px;"">+</div>","null","html-keyboard-response","456","1244831","0.0-8.0-1.93","anr94szkyb","0","","","","","",""
"null","<img src=""osf_files/Objects/basket.jpg"" style=""padding:50px;border:20px solid green"" />","null","html-keyboard-response","457","1247832","0.0-8.0-0.94","anr94szkyb","0","","","","","",""
"null","<div style=""font-size:60px;"">+</div>","null","html-keyboard-response","458","1249451","0.0-8.0-1.94","anr94szkyb","0","","","","","",""
"null","<img src=""osf_files/Objects/broom.jpg"" style=""padding:50px;border:20px solid green"" />","null","html-keyboard-response","459","1252453","0.0-8.0-0.95","anr94szkyb","0","","","","","",""
"null","<div style=""font-size:60px;"">+</div>","null","html-keyboard-response","460","1254826","0.0-8.0-1.95","anr94szkyb","0","","","","","",""
"null","<img src=""osf_files/Objects/newspaper2.jpg"" style=""padding:50px;border:20px solid red"" />","null","html-keyboard-response","461","1257827","0.0-8.0-0.96","anr94szkyb","0","","","","","",""
"null","<div style=""font-size:60px;"">+</div>","null","html-keyboard-response","462","1260197","0.0-8.0-1.96","anr94szkyb","0","","","","","",""
"null","<img src=""osf_files/Objects/garbagebin.jpg"" style=""padding:50px;border:20px solid red"" />","null","html-keyboard-response","463","1263200","0.0-8.0-0.97","anr94szkyb","0","","","","","",""
"null","<div style=""font-size:60px;"">+</div>","null","html-keyboard-response","464","1265603","0.0-8.0-1.97","anr94szkyb","0","","","","","",""
"null","<img src=""osf_files/Objects/handbag.jpg"" style=""padding:50px;border:20px solid green"" />","null","html-keyboard-response","465","1268605","0.0-8.0-0.98","anr94szkyb","0","","","","","",""
"null","<div style=""font-size:60px;"">+</div>","null","html-keyboard-response","466","1271024","0.0-8.0-1.98","anr94szkyb","0","","","","","",""
"null","<img src=""osf_files/Objects/shoppingcart.jpg"" style=""padding:50px;border:20px solid red"" />","null","html-keyboard-response","467","1274026","0.0-8.0-0.99","anr94szkyb","0","","","","","",""
"null","<div style=""font-size:60px;"">+</div>","null","html-keyboard-response","468","1275966","0.0-8.0-1.99","anr94szkyb","0","","","","","",""
"null","<img src=""osf_files/Objects/juice.jpg"" style=""padding:50px;border:20px solid green"" />","null","html-keyboard-response","469","1278968","0.0-8.0-0.100","anr94szkyb","0","","","","","",""
"null","<div style=""font-size:60px;"">+</div>","null","html-keyboard-response","470","1280848","0.0-8.0-1.100","anr94szkyb","0","","","","","",""
"null","<img src=""osf_files/Objects/rug.jpg"" style=""padding:50px;border:20px solid red"" />","null","html-keyboard-response","471","1283850","0.0-8.0-0.101","anr94szkyb","0","","","","","",""
"null","<div style=""font-size:60px;"">+</div>","null","html-keyboard-response","472","1285371","0.0-8.0-1.101","anr94szkyb","0","","","","","",""
"null","<img src=""osf_files/Objects/dress.jpg"" style=""padding:50px;border:20px solid green"" />","null","html-keyboard-response","473","1288373","0.0-8.0-0.102","anr94szkyb","0","","","","","",""
"null","<div style=""font-size:60px;"">+</div>","null","html-keyboard-response","474","1290508","0.0-8.0-1.102","anr94szkyb","0","","","","","",""
"null","<img src=""osf_files/Objects/cigarette.jpg"" style=""padding:50px;border:20px solid red"" />","null","html-keyboard-response","475","1293511","0.0-8.0-0.103","anr94szkyb","0","","","","","",""
"null","<div style=""font-size:60px;"">+</div>","null","html-keyboard-response","476","1296098","0.0-8.0-1.103","anr94szkyb","0","","","","","",""
"null","<img src=""osf_files/Objects/boot.jpg"" style=""padding:50px;border:20px solid red"" />","null","html-keyboard-response","477","1299100","0.0-8.0-0.104","anr94szkyb","0","","","","","",""
"null","<div style=""font-size:60px;"">+</div>","null","html-keyboard-response","478","1301071","0.0-8.0-1.104","anr94szkyb","0","","","","","",""
"null","<img src=""osf_files/Objects/sunglasses.jpg"" style=""padding:50px;border:20px solid red"" />","null","html-keyboard-response","479","1304074","0.0-8.0-0.105","anr94szkyb","0","","","","","",""
"null","<div style=""font-size:60px;"">+</div>","null","html-keyboard-response","480","1305796","0.0-8.0-1.105","anr94szkyb","0","","","","","",""
"null","<img src=""osf_files/Objects/boot.jpg"" style=""padding:50px;border:20px solid red"" />","null","html-keyboard-response","481","1308798","0.0-8.0-0.106","anr94szkyb","0","","","","","",""
"null","<div style=""font-size:60px;"">+</div>","null","html-keyboard-response","482","1310763","0.0-8.0-1.106","anr94szkyb","0","","","","","",""
"null","<img src=""osf_files/Objects/camcorder.jpg"" style=""padding:50px;border:20px solid red"" />","null","html-keyboard-response","483","1313765","0.0-8.0-0.107","anr94szkyb","0","","","","","",""
"null","<div style=""font-size:60px;"">+</div>","null","html-keyboard-response","484","1316164","0.0-8.0-1.107","anr94szkyb","0","","","","","",""
"null","<img src=""osf_files/Objects/trafficlight.jpg"" style=""padding:50px;border:20px solid green"" />","null","html-keyboard-response","485","1319166","0.0-8.0-0.108","anr94szkyb","0","","","","","",""
"null","<div style=""font-size:60px;"">+</div>","null","html-keyboard-response","486","1321236","0.0-8.0-1.108","anr94szkyb","0","","","","","",""
"null","<img src=""osf_files/Objects/handbag.jpg"" style=""padding:50px;border:20px solid green"" />","null","html-keyboard-response","487","1324238","0.0-8.0-0.109","anr94szkyb","0","","","","","",""
"null","<div style=""font-size:60px;"">+</div>","null","html-keyboard-response","488","1325980","0.0-8.0-1.109","anr94szkyb","0","","","","","",""
"null","<img src=""osf_files/Objects/broom.jpg"" style=""padding:50px;border:20px solid green"" />","null","html-keyboard-response","489","1328983","0.0-8.0-0.110","anr94szkyb","0","","","","","",""
"null","<div style=""font-size:60px;"">+</div>","null","html-keyboard-response","490","1331167","0.0-8.0-1.110","anr94szkyb","0","","","","","",""
"null","<img src=""osf_files/Objects/rockingchair.jpg"" style=""padding:50px;border:20px solid green"" />","null","html-keyboard-response","491","1334169","0.0-8.0-0.111","anr94szkyb","0","","","","","",""
"null","<div style=""font-size:60px;"">+</div>","null","html-keyboard-response","492","1336088","0.0-8.0-1.111","anr94szkyb","0","","","","","",""
"null","<img src=""osf_files/Objects/mug.jpg"" style=""padding:50px;border:20px solid red"" />","null","html-keyboard-response","493","1339090","0.0-8.0-0.112","anr94szkyb","0","","","","","",""
"null","<div style=""font-size:60px;"">+</div>","null","html-keyboard-response","494","1341640","0.0-8.0-1.112","anr94szkyb","0","","","","","",""
"null","<img src=""osf_files/Objects/tie.jpg"" style=""padding:50px;border:20px solid red"" />","null","html-keyboard-response","495","1344642","0.0-8.0-0.113","anr94szkyb","0","","","","","",""
"null","<div style=""font-size:60px;"">+</div>","null","html-keyboard-response","496","1346793","0.0-8.0-1.113","anr94szkyb","0","","","","","",""
"null","<img src=""osf_files/Objects/rug.jpg"" style=""padding:50px;border:20px solid red"" />","null","html-keyboard-response","497","1349794","0.0-8.0-0.114","anr94szkyb","0","","","","","",""
"null","<div style=""font-size:60px;"">+</div>","null","html-keyboard-response","498","1351770","0.0-8.0-1.114","anr94szkyb","0","","","","","",""
"null","<img src=""osf_files/Objects/hanger.jpg"" style=""padding:50px;border:20px solid green"" />","null","html-keyboard-response","499","1354772","0.0-8.0-0.115","anr94szkyb","0","","","","","",""
"null","<div style=""font-size:60px;"">+</div>","null","html-keyboard-response","500","1356455","0.0-8.0-1.115","anr94szkyb","0","","","","","",""
"null","<img src=""osf_files/Objects/clock.jpg"" style=""padding:50px;border:20px solid green"" />","null","html-keyboard-response","501","1359458","0.0-8.0-0.116","anr94szkyb","0","","","","","",""
"null","<div style=""font-size:60px;"">+</div>","null","html-keyboard-response","502","1361023","0.0-8.0-1.116","anr94szkyb","0","","","","","",""
"null","<img src=""osf_files/Objects/necklace.jpg"" style=""padding:50px;border:20px solid green"" />","null","html-keyboard-response","503","1364025","0.0-8.0-0.117","anr94szkyb","0","","","","","",""
"null","<div style=""font-size:60px;"">+</div>","null","html-keyboard-response","504","1366259","0.0-8.0-1.117","anr94szkyb","0","","","","","",""
"null","<img src=""osf_files/Objects/bottle.jpg"" style=""padding:50px;border:20px solid red"" />","null","html-keyboard-response","505","1369261","0.0-8.0-0.118","anr94szkyb","0","","","","","",""
"null","<div style=""font-size:60px;"">+</div>","null","html-keyboard-response","506","1371110","0.0-8.0-1.118","anr94szkyb","0","","","","","",""
"null","<img src=""osf_files/Objects/hat.jpg"" style=""padding:50px;border:20px solid green"" />","null","html-keyboard-response","507","1374108","0.0-8.0-0.119","anr94szkyb","0","","","","","",""
"null","<div style=""font-size:60px;"">+</div>","null","html-keyboard-response","508","1376390","0.0-8.0-1.119","anr94szkyb","0","","","","","",""
"null","<img src=""osf_files/Objects/bottle.jpg"" style=""padding:50px;border:20px solid red"" />","null","html-keyboard-response","509","1379389","0.0-8.0-0.120","anr94szkyb","0","","","","","",""
"null","<div style=""font-size:60px;"">+</div>","null","html-keyboard-response","510","1381270","0.0-8.0-1.120","anr94szkyb","0","","","","","",""
"null","<img src=""osf_files/Objects/tv.jpg"" style=""padding:50px;border:20px solid green"" />","null","html-keyboard-response","511","1384269","0.0-8.0-0.121","anr94szkyb","0","","","","","",""
"null","<div style=""font-size:60px;"">+</div>","null","html-keyboard-response","512","1385890","0.0-8.0-1.121","anr94szkyb","0","","","","","",""
"null","<img src=""osf_files/Objects/comb.jpg"" style=""padding:50px;border:20px solid red"" />","null","html-keyboard-response","513","1388890","0.0-8.0-0.122","anr94szkyb","0","","","","","",""
"null","<div style=""font-size:60px;"">+</div>","null","html-keyboard-response","514","1391478","0.0-8.0-1.122","anr94szkyb","0","","","","","",""
"null","<img src=""osf_files/Objects/juice.jpg"" style=""padding:50px;border:20px solid green"" />","null","html-keyboard-response","515","1394479","0.0-8.0-0.123","anr94szkyb","0","","","","","",""
"null","<div style=""font-size:60px;"">+</div>","null","html-keyboard-response","516","1396716","0.0-8.0-1.123","anr94szkyb","0","","","","","",""
"null","<img src=""osf_files/Objects/necklace.jpg"" style=""padding:50px;border:20px solid green"" />","null","html-keyboard-response","517","1399718","0.0-8.0-0.124","anr94szkyb","0","","","","","",""
"null","<div style=""font-size:60px;"">+</div>","null","html-keyboard-response","518","1401271","0.0-8.0-1.124","anr94szkyb","0","","","","","",""
"null","<img src=""osf_files/Objects/doll.jpg"" style=""padding:50px;border:20px solid red"" />","null","html-keyboard-response","519","1404273","0.0-8.0-0.125","anr94szkyb","0","","","","","",""
"null","<div style=""font-size:60px;"">+</div>","null","html-keyboard-response","520","1405740","0.0-8.0-1.125","anr94szkyb","0","","","","","",""
"null","<img src=""osf_files/Objects/sunglasses.jpg"" style=""padding:50px;border:20px solid red"" />","null","html-keyboard-response","521","1408742","0.0-8.0-0.126","anr94szkyb","0","","","","","",""
"null","<div style=""font-size:60px;"">+</div>","null","html-keyboard-response","522","1410476","0.0-8.0-1.126","anr94szkyb","0","","","","","",""
"null","<img src=""osf_files/Objects/socks.jpg"" style=""padding:50px;border:20px solid red"" />","null","html-keyboard-response","523","1413478","0.0-8.0-0.127","anr94szkyb","0","","","","","",""
"null","<div style=""font-size:60px;"">+</div>","null","html-keyboard-response","524","1415132","0.0-8.0-1.127","anr94szkyb","0","","","","","",""
"null","<img src=""osf_files/Objects/shoppingcart.jpg"" style=""padding:50px;border:20px solid red"" />","null","html-keyboard-response","525","1418134","0.0-8.0-0.128","anr94szkyb","0","","","","","",""
"null","<div style=""font-size:60px;"">+</div>","null","html-keyboard-response","526","1420084","0.0-8.0-1.128","anr94szkyb","0","","","","","",""
"null","<img src=""osf_files/Objects/handbag.jpg"" style=""padding:50px;border:20px solid green"" />","null","html-keyboard-response","527","1423086","0.0-8.0-0.129","anr94szkyb","0","","","","","",""
"null","<div style=""font-size:60px;"">+</div>","null","html-keyboard-response","528","1424575","0.0-8.0-1.129","anr94szkyb","0","","","","","",""
"null","<img src=""osf_files/Objects/broom.jpg"" style=""padding:50px;border:20px solid green"" />","null","html-keyboard-response","529","1427576","0.0-8.0-0.130","anr94szkyb","0","","","","","",""
"null","<div style=""font-size:60px;"">+</div>","null","html-keyboard-response","530","1429517","0.0-8.0-1.130","anr94szkyb","0","","","","","",""
"null","<img src=""osf_files/Objects/tie.jpg"" style=""padding:50px;border:20px solid red"" />","null","html-keyboard-response","531","1432519","0.0-8.0-0.131","anr94szkyb","0","","","","","",""
"null","<div style=""font-size:60px;"">+</div>","null","html-keyboard-response","532","1434560","0.0-8.0-1.131","anr94szkyb","0","","","","","",""
"null","<img src=""osf_files/Objects/tv.jpg"" style=""padding:50px;border:20px solid green"" />","null","html-keyboard-response","533","1437562","0.0-8.0-0.132","anr94szkyb","0","","","","","",""
"null","<div style=""font-size:60px;"">+</div>","null","html-keyboard-response","534","1439479","0.0-8.0-1.132","anr94szkyb","0","","","","","",""
"null","<img src=""osf_files/Objects/woolenhat.jpg"" style=""padding:50px;border:20px solid green"" />","null","html-keyboard-response","535","1442481","0.0-8.0-0.133","anr94szkyb","0","","","","","",""
"null","<div style=""font-size:60px;"">+</div>","null","html-keyboard-response","536","1444029","0.0-8.0-1.133","anr94szkyb","0","","","","","",""
"null","<img src=""osf_files/Objects/microphone.jpg"" style=""padding:50px;border:20px solid green"" />","null","html-keyboard-response","537","1447031","0.0-8.0-0.134","anr94szkyb","0","","","","","",""
"null","<div style=""font-size:60px;"">+</div>","null","html-keyboard-response","538","1449178","0.0-8.0-1.134","anr94szkyb","0","","","","","",""
"null","<img src=""osf_files/Objects/garbagebag.jpg"" style=""padding:50px;border:20px solid red"" />","null","html-keyboard-response","539","1452181","0.0-8.0-0.135","anr94szkyb","0","","","","","",""
"null","<div style=""font-size:60px;"">+</div>","null","html-keyboard-response","540","1454225","0.0-8.0-1.135","anr94szkyb","0","","","","","",""
"null","<img src=""osf_files/Objects/dress.jpg"" style=""padding:50px;border:20px solid green"" />","null","html-keyboard-response","541","1457227","0.0-8.0-0.136","anr94szkyb","0","","","","","",""
"null","<div style=""font-size:60px;"">+</div>","null","html-keyboard-response","542","1459127","0.0-8.0-1.136","anr94szkyb","0","","","","","",""
"null","<img src=""osf_files/Objects/cigarette.jpg"" style=""padding:50px;border:20px solid red"" />","null","html-keyboard-response","543","1462130","0.0-8.0-0.137","anr94szkyb","0","","","","","",""
"null","<div style=""font-size:60px;"">+</div>","null","html-keyboard-response","544","1464678","0.0-8.0-1.137","anr94szkyb","0","","","","","",""
"null","<img src=""osf_files/Objects/boot.jpg"" style=""padding:50px;border:20px solid red"" />","null","html-keyboard-response","545","1467680","0.0-8.0-0.138","anr94szkyb","0","","","","","",""
"null","<div style=""font-size:60px;"">+</div>","null","html-keyboard-response","546","1469960","0.0-8.0-1.138","anr94szkyb","0","","","","","",""
"null","<img src=""osf_files/Objects/boot.jpg"" style=""padding:50px;border:20px solid red"" />","null","html-keyboard-response","547","1472962","0.0-8.0-0.139","anr94szkyb","0","","","","","",""
"null","<div style=""font-size:60px;"">+</div>","null","html-keyboard-response","548","1475114","0.0-8.0-1.139","anr94szkyb","0","","","","","",""
"null","<img src=""osf_files/Objects/handbag.jpg"" style=""padding:50px;border:20px solid green"" />","null","html-keyboard-response","549","1478116","0.0-8.0-0.140","anr94szkyb","0","","","","","",""
"null","<div style=""font-size:60px;"">+</div>","null","html-keyboard-response","550","1480039","0.0-8.0-1.140","anr94szkyb","0","","","","","",""
"null","<img src=""osf_files/Objects/shoppingcart.jpg"" style=""padding:50px;border:20px solid red"" />","null","html-keyboard-response","551","1483041","0.0-8.0-0.141","anr94szkyb","0","","","","","",""
"null","<div style=""font-size:60px;"">+</div>","null","html-keyboard-response","552","1484697","0.0-8.0-1.141","anr94szkyb","0","","","","","",""
"null","<img src=""osf_files/Objects/microphone.jpg"" style=""padding:50px;border:20px solid green"" />","null","html-keyboard-response","553","1487700","0.0-8.0-0.142","anr94szkyb","0","","","","","",""
"null","<div style=""font-size:60px;"">+</div>","null","html-keyboard-response","554","1489180","0.0-8.0-1.142","anr94szkyb","0","","","","","",""
"null","<img src=""osf_files/Objects/sneakers.jpg"" style=""padding:50px;border:20px solid green"" />","null","html-keyboard-response","555","1492183","0.0-8.0-0.143","anr94szkyb","0","","","","","",""
"null","<div style=""font-size:60px;"">+</div>","null","html-keyboard-response","556","1493819","0.0-8.0-1.143","anr94szkyb","0","","","","","",""
"null","<img src=""osf_files/Objects/newspaper2.jpg"" style=""padding:50px;border:20px solid red"" />","null","html-keyboard-response","557","1496822","0.0-8.0-0.144","anr94szkyb","0","","","","","",""
"null","<div style=""font-size:60px;"">+</div>","null","html-keyboard-response","558","1499045","0.0-8.0-1.144","anr94szkyb","0","","","","","",""
"null","<img src=""osf_files/Objects/comb.jpg"" style=""padding:50px;border:20px solid red"" />","null","html-keyboard-response","559","1502047","0.0-8.0-0.145","anr94szkyb","0","","","","","",""
"null","<div style=""font-size:60px;"">+</div>","null","html-keyboard-response","560","1504414","0.0-8.0-1.145","anr94szkyb","0","","","","","",""
"null","<img src=""osf_files/Objects/doll.jpg"" style=""padding:50px;border:20px solid red"" />","null","html-keyboard-response","561","1507415","0.0-8.0-0.146","anr94szkyb","0","","","","","",""
"null","<div style=""font-size:60px;"">+</div>","null","html-keyboard-response","562","1508901","0.0-8.0-1.146","anr94szkyb","0","","","","","",""
"null","<img src=""osf_files/Objects/hat.jpg"" style=""padding:50px;border:20px solid green"" />","null","html-keyboard-response","563","1511904","0.0-8.0-0.147","anr94szkyb","0","","","","","",""
"null","<div style=""font-size:60px;"">+</div>","null","html-keyboard-response","564","1513569","0.0-8.0-1.147","anr94szkyb","0","","","","","",""
"null","<img src=""osf_files/Objects/hanger.jpg"" style=""padding:50px;border:20px solid green"" />","null","html-keyboard-response","565","1516571","0.0-8.0-0.148","anr94szkyb","0","","","","","",""
"null","<div style=""font-size:60px;"">+</div>","null","html-keyboard-response","566","1518592","0.0-8.0-1.148","anr94szkyb","0","","","","","",""
"null","<img src=""osf_files/Objects/rug.jpg"" style=""padding:50px;border:20px solid red"" />","null","html-keyboard-response","567","1521594","0.0-8.0-0.149","anr94szkyb","0","","","","","",""
"null","<div style=""font-size:60px;"">+</div>","null","html-keyboard-response","568","1523443","0.0-8.0-1.149","anr94szkyb","0","","","","","",""
"null","<img src=""osf_files/Objects/rug.jpg"" style=""padding:50px;border:20px solid red"" />","null","html-keyboard-response","569","1526444","0.0-8.0-0.150","anr94szkyb","0","","","","","",""
"null","<div style=""font-size:60px;"">+</div>","null","html-keyboard-response","570","1528266","0.0-8.0-1.150","anr94szkyb","0","","","","","",""
"null","<img src=""osf_files/Objects/sunglasses.jpg"" style=""padding:50px;border:20px solid red"" />","null","html-keyboard-response","571","1531269","0.0-8.0-0.151","anr94szkyb","0","","","","","",""
"null","<div style=""font-size:60px;"">+</div>","null","html-keyboard-response","572","1533816","0.0-8.0-1.151","anr94szkyb","0","","","","","",""
"null","<img src=""osf_files/Objects/garbagebin.jpg"" style=""padding:50px;border:20px solid red"" />","null","html-keyboard-response","573","1536819","0.0-8.0-0.152","anr94szkyb","0","","","","","",""
"null","<div style=""font-size:60px;"">+</div>","null","html-keyboard-response","574","1538545","0.0-8.0-1.152","anr94szkyb","0","","","","","",""
"null","<img src=""osf_files/Objects/cigarette.jpg"" style=""padding:50px;border:20px solid red"" />","null","html-keyboard-response","575","1541547","0.0-8.0-0.153","anr94szkyb","0","","","","","",""
"null","<div style=""font-size:60px;"">+</div>","null","html-keyboard-response","576","1543223","0.0-8.0-1.153","anr94szkyb","0","","","","","",""
"null","<img src=""osf_files/Objects/necklace.jpg"" style=""padding:50px;border:20px solid green"" />","null","html-keyboard-response","577","1546226","0.0-8.0-0.154","anr94szkyb","0","","","","","",""
"null","<div style=""font-size:60px;"">+</div>","null","html-keyboard-response","578","1547711","0.0-8.0-1.154","anr94szkyb","0","","","","","",""
"null","<img src=""osf_files/Objects/watch.jpg"" style=""padding:50px;border:20px solid red"" />","null","html-keyboard-response","579","1550713","0.0-8.0-0.155","anr94szkyb","0","","","","","",""
"null","<div style=""font-size:60px;"">+</div>","null","html-keyboard-response","580","1552777","0.0-8.0-1.155","anr94szkyb","0","","","","","",""
"null","<img src=""osf_files/Objects/clock.jpg"" style=""padding:50px;border:20px solid green"" />","null","html-keyboard-response","581","1555779","0.0-8.0-0.156","anr94szkyb","0","","","","","",""
"null","<div style=""font-size:60px;"">+</div>","null","html-keyboard-response","582","1557559","0.0-8.0-1.156","anr94szkyb","0","","","","","",""
"null","<img src=""osf_files/Objects/juice.jpg"" style=""padding:50px;border:20px solid green"" />","null","html-keyboard-response","583","1560561","0.0-8.0-0.157","anr94szkyb","0","","","","","",""
"null","<div style=""font-size:60px;"">+</div>","null","html-keyboard-response","584","1562618","0.0-8.0-1.157","anr94szkyb","0","","","","","",""
"null","<img src=""osf_files/Objects/doll.jpg"" style=""padding:50px;border:20px solid red"" />","null","html-keyboard-response","585","1565620","0.0-8.0-0.158","anr94szkyb","0","","","","","",""
"null","<div style=""font-size:60px;"">+</div>","null","html-keyboard-response","586","1568085","0.0-8.0-1.158","anr94szkyb","0","","","","","",""
